time,acc_x,acc_y,acc_z,gyr_x,gyr_y,gyr_z,mag_x,mag_y,mag_z
2021-06-17T15:56:21.65,0.05,-0.38,9.84,0.125,-0.1875,-0.0625,-16.5,9.6875,-44.75
2021-06-17T15:56:21.692,0.05,-0.39,9.86,-0.0625,-0.125,0.0625,-16.5,9.25,-46.0625
2021-06-17T15:56:21.692,0.06,-0.42,9.87,0.0,-0.0625,-0.0625,-16.5,9.25,-46.0625
2021-06-17T15:56:21.692,0.05,-0.39,9.83,0.125,-0.0625,-0.0625,-16.5,9.25,-46.0625
2021-06-17T15:56:21.693,0.05,-0.39,9.85,-0.1875,0.25,-0.1875,-16.875,9.6875,-45.5625
2021-06-17T15:56:21.693,0.05,-0.39,9.83,0.0625,-0.0625,0.0625,-16.875,9.6875,-45.5625
2021-06-17T15:56:21.693,0.06,-0.39,9.86,-0.1875,0.125,0.0625,-16.1875,8.875,-44.75
2021-06-17T15:56:21.693,0.05,-0.01,-0.01,0.0,0.125,0.0,-0.0625,-0.0625,-0.0625
2021-06-17T15:56:21.694,0.04,-0.39,9.85,-0.0625,0.0625,-0.1875,-16.1875,8.875,-44.75
2021-06-17T15:56:21.694,0.05,-0.39,9.87,-0.0625,-0.0625,-0.0625,-16.1875,8.875,-44.75
2021-06-17T15:56:21.699,0.07,-0.41,9.84,0.0,-0.1875,0.0625,-16.5,8.5,-44.75
2021-06-17T15:56:21.712,0.04,-0.4,9.85,-0.125,0.0,0.0,-16.5,8.5,-44.75
2021-06-17T15:56:21.725,0.06,-0.4,9.84,-0.125,-0.0625,0.0625,-16.5,8.5,-44.75
2021-06-17T15:56:21.737,0.05,-0.39,9.86,0.0,0.0625,0.0625,-16.5,8.5,-44.75
2021-06-17T15:56:21.75,0.06,-0.4,9.85,0.0625,-0.125,0.0,-16.1875,8.5,-46.375
2021-06-17T15:56:21.763,0.06,-0.39,9.87,0.125,0.125,-0.125,-16.1875,8.5,-46.375
2021-06-17T15:56:21.776,0.06,-0.4,9.85,0.0,0.0625,0.0,-16.1875,8.5,-46.375
2021-06-17T15:56:21.797,0.06,-0.41,9.85,0.0625,-0.125,0.0,-16.1875,8.1875,-45.25
2021-06-17T15:56:21.811,0.04,-0.4,9.83,0.0625,0.0,0.0,-16.1875,8.1875,-45.25
2021-06-17T15:56:21.824,0.07,-0.41,9.85,0.0625,-0.125,-0.125,-16.1875,8.1875,-45.25
2021-06-17T15:56:21.837,0.05,-0.41,9.84,0.0,0.0625,0.0,-16.1875,8.1875,-45.25
2021-06-17T15:56:21.85,0.06,-0.4,9.85,0.0625,-0.125,0.0625,-15.75,9.25,-45.5625
2021-06-17T15:56:21.862,0.05,-0.41,9.83,0.0,0.0625,-0.0625,-15.75,9.25,-45.5625
2021-06-17T15:56:21.875,0.05,-0.4,9.82,0.0,0.0,0.0,-15.75,9.25,-45.5625
2021-06-17T15:56:21.888,0.04,-0.4,9.85,-0.0625,-0.0625,-0.125,-15.75,9.25,-45.5625
2021-06-17T15:56:21.901,0.05,-0.4,9.86,0.0,0.125,-0.0625,-16.5,8.875,-46.0
2021-06-17T15:56:21.914,0.05,-0.4,9.83,0.0,0.0625,0.0,-16.5,8.875,-46.0
2021-06-17T15:56:21.927,0.05,-0.41,9.82,0.0625,0.0,-0.0625,-16.5,8.875,-46.0
2021-06-17T15:56:21.939,0.07,-0.39,9.86,0.0,-0.0625,0.0,-16.5,8.875,-46.0
2021-06-17T15:56:21.952,0.05,-0.41,9.81,0.1875,-0.125,-0.1875,-16.5,8.875,-45.5625
2021-06-17T15:56:21.965,0.05,-0.4,9.84,0.0625,-0.125,0.0,-16.5,8.875,-45.5625
2021-06-17T15:56:21.978,0.06,-0.42,9.84,0.0,0.0,0.0,-16.5,8.875,-45.5625
2021-06-17T15:56:21.991,0.04,-0.39,9.83,0.0625,0.0625,0.125,-16.5,8.875,-45.5625
2021-06-17T15:56:22.004,0.04,-0.41,9.84,0.125,0.0,-0.125,-15.375,9.6875,-45.25
2021-06-17T15:56:22.027,0.04,-0.41,9.84,0.125,-0.1875,0.0,-15.375,9.6875,-45.25
2021-06-17T15:56:22.045,0.05,-0.4,9.86,0.0625,0.0,-0.0625,-16.5,9.25,-45.25
2021-06-17T15:56:22.058,0.06,-0.41,9.87,-0.0625,0.0625,0.0,-16.5,9.25,-45.25
2021-06-17T15:56:22.071,0.05,-0.42,9.82,0.0,-0.0625,-0.0625,-16.5,9.25,-45.25
2021-06-17T15:56:22.084,0.06,-0.41,9.8,-0.0625,0.125,-0.0625,-16.5,9.25,-45.25
2021-06-17T15:56:22.097,0.05,-0.38,9.86,-0.0625,-0.0625,0.0,-16.5,9.6875,-46.375
2021-06-17T15:56:22.109,0.05,-0.39,9.87,0.0625,0.0,-0.125,-16.5,9.6875,-46.375
2021-06-17T15:56:22.122,0.04,-0.41,9.81,0.0,0.0,-0.0625,-16.5,9.6875,-46.375
2021-06-17T15:56:22.135,0.05,-0.39,9.84,-0.0625,-0.0625,-0.0625,-16.5,9.6875,-46.375
2021-06-17T15:56:22.148,0.06,-0.42,9.85,0.0,0.0,-0.0625,-15.75,8.1875,-45.5625
2021-06-17T15:56:22.161,0.06,-0.41,9.84,0.0,-0.0625,-0.125,-15.75,8.1875,-45.5625
2021-06-17T15:56:22.174,0.04,-0.39,9.8,0.0625,-0.0625,-0.0625,-15.75,8.1875,-45.5625
2021-06-17T15:56:22.187,0.05,-0.39,9.85,-0.0625,0.0625,-0.0625,-15.75,8.1875,-45.5625
2021-06-17T15:56:22.2,0.06,-0.39,9.83,0.0,-0.1875,-0.0625,-16.1875,8.5,-45.5625
2021-06-17T15:56:22.213,0.05,-0.4,9.85,0.0,0.0625,0.0625,-16.1875,8.5,-45.5625
2021-06-17T15:56:22.225,0.05,-0.4,9.81,0.0,0.0,0.0625,-16.1875,8.5,-45.5625
2021-06-17T15:56:22.238,0.04,-0.42,9.86,0.0625,0.0,0.0,-16.1875,8.5,-45.5625
2021-06-17T15:56:22.273,0.05,-0.39,9.85,0.125,0.0625,0.0625,-16.5,9.25,-46.875
2021-06-17T15:56:22.286,0.06,-0.4,9.86,-0.1875,-0.0625,0.125,-16.5,9.25,-46.875
2021-06-17T15:56:22.299,0.05,-0.4,9.83,0.0,0.0,0.0625,-16.875,8.875,-46.0625
2021-06-17T15:56:22.312,0.05,-0.39,9.87,0.1875,0.0625,0.0,-16.875,8.875,-46.0625
2021-06-17T15:56:22.325,0.07,-0.4,9.84,-0.0625,-0.125,0.0,-16.875,8.875,-46.0625
2021-06-17T15:56:22.338,0.05,-0.42,9.84,0.0625,-0.1875,0.0625,-16.875,8.875,-46.0625
2021-06-17T15:56:22.35,0.06,-0.39,9.84,0.0,0.0,0.0,-16.1875,8.5,-45.25
2021-06-17T15:56:22.363,0.05,-0.4,9.83,-0.0625,-0.0625,0.0,-16.1875,8.5,-45.25
2021-06-17T15:56:22.376,0.04,-0.4,9.84,0.125,0.0,0.0625,-16.1875,8.5,-45.25
2021-06-17T15:56:22.389,0.04,-0.41,9.84,0.0,0.0,0.0625,-16.1875,8.5,-45.25
2021-06-17T15:56:22.401,0.06,-0.41,9.87,-0.0625,0.125,0.0625,-15.75,9.25,-45.5625
2021-06-17T15:56:22.414,0.04,-0.4,9.86,0.0625,0.0,0.0625,-15.75,9.25,-45.5625
2021-06-17T15:56:22.427,0.05,-0.4,9.84,0.125,-0.0625,0.125,-15.75,9.25,-45.5625
2021-06-17T15:56:22.44,0.02,-0.41,9.83,0.0625,0.0625,0.0,-15.75,9.25,-45.5625
2021-06-17T15:56:22.453,0.06,-0.4,9.87,0.0,0.0625,0.0,-15.75,8.875,-45.5625
2021-06-17T15:56:22.466,0.06,-0.38,9.82,0.0,0.0625,0.0,-15.75,8.875,-45.5625
2021-06-17T15:56:22.507,0.06,-0.41,9.89,0.125,-0.0625,0.0,-16.5,9.25,-46.375
2021-06-17T15:56:22.52,0.04,-0.4,9.82,-0.0625,-0.0625,0.0625,-16.5,9.25,-46.375
2021-06-17T15:56:22.533,0.05,-0.4,9.85,0.0,0.0,-0.0625,-16.5,9.25,-46.375
2021-06-17T15:56:22.545,0.04,-0.4,9.84,0.125,0.0,0.0625,-16.5,9.25,-46.375
2021-06-17T15:56:22.558,0.07,-0.39,9.85,0.125,-0.0625,0.0,-16.5,8.5,-45.5625
2021-06-17T15:56:22.571,0.04,-0.4,9.85,0.0625,-0.0625,0.0,-16.5,8.5,-45.5625
2021-06-17T15:56:22.584,0.04,-0.41,9.84,0.0625,-0.0625,-0.0625,-16.5,8.5,-45.5625
2021-06-17T15:56:22.597,0.06,-0.4,9.85,0.0,0.0625,0.0625,-15.75,9.25,-44.375
2021-06-17T15:56:22.61,0.06,-0.4,9.83,-0.0625,0.0,0.0625,-15.75,9.25,-44.375
2021-06-17T15:56:22.622,0.04,-0.41,9.86,-0.0625,0.0625,0.0,-15.75,9.25,-44.375
2021-06-17T15:56:22.636,0.06,-0.39,9.86,0.1875,0.0625,0.0625,-15.75,9.25,-44.375
2021-06-17T15:56:22.649,0.06,-0.41,9.86,0.0625,0.125,-0.0625,-17.25,9.25,-45.5625
2021-06-17T15:56:22.662,0.06,-0.39,9.84,0.1875,0.0,0.0625,-17.25,9.25,-45.5625
2021-06-17T15:56:22.675,0.05,-0.42,9.86,0.125,-0.0625,0.0625,-17.25,9.25,-45.5625
2021-06-17T15:56:22.687,0.03,-0.4,9.86,0.0,0.0625,-0.0625,-17.25,9.25,-45.5625
2021-06-17T15:56:22.7,0.06,-0.4,9.85,0.0625,0.0,0.0625,-15.75,8.5,-45.25
2021-06-17T15:56:22.713,0.07,-0.42,9.87,0.0625,0.0625,0.0,-15.75,8.5,-45.25
2021-06-17T15:56:22.734,0.06,-0.4,9.85,0.125,-0.1875,0.0,-15.75,8.5,-45.25
2021-06-17T15:56:22.748,0.05,-0.4,9.87,0.0625,-0.125,0.0,-16.875,9.6875,-45.5625
2021-06-17T15:56:22.76,0.04,-0.4,9.86,0.0,0.0625,0.0625,-16.875,9.6875,-45.5625
2021-06-17T15:56:22.773,0.06,-0.39,9.82,0.0,0.0,0.0625,-16.875,9.6875,-45.5625
2021-06-17T15:56:22.786,0.05,-0.38,9.81,0.0,-0.0625,0.0,-16.875,9.6875,-45.5625
2021-06-17T15:56:22.799,0.05,-0.39,9.86,0.0625,-0.125,0.125,-15.75,8.5,-44.75
2021-06-17T15:56:22.812,0.06,-0.43,9.83,0.0,0.0,0.0,-15.75,8.5,-44.75
2021-06-17T15:56:22.824,0.05,-0.4,9.86,-0.0625,0.0,0.125,-15.75,8.5,-44.75
2021-06-17T15:56:22.837,0.05,-0.41,9.85,-0.125,0.0,0.0625,-15.75,8.5,-44.75
2021-06-17T15:56:22.85,0.06,-0.39,9.87,0.125,-0.0625,0.0,-16.5,10.0,-46.0625
2021-06-17T15:56:22.863,0.05,-0.39,9.85,0.0,-0.125,0.125,-16.5,10.0,-46.0625
2021-06-17T15:56:22.876,0.05,-0.41,9.84,0.0,0.125,0.0,-16.5,10.0,-46.0625
2021-06-17T15:56:22.889,0.05,-0.41,9.84,-0.0625,0.0625,0.0625,-16.5,10.0,-46.0625
2021-06-17T15:56:22.902,0.05,-0.41,9.86,-0.0625,0.0,0.0,-16.875,8.5,-45.5625
2021-06-17T15:56:22.915,0.05,-0.42,9.82,0.0,-0.0625,0.0,-16.875,8.5,-45.5625
2021-06-17T15:56:22.927,0.06,-0.39,9.83,-0.125,-0.125,0.0625,-16.875,8.5,-45.5625
2021-06-17T15:56:22.94,0.06,-0.39,9.86,0.0,0.125,0.0,-16.875,8.5,-45.5625
2021-06-17T15:56:22.964,0.04,-0.4,9.83,-0.1875,0.0625,-0.0625,-16.875,9.6875,-45.25
2021-06-17T15:56:22.981,0.07,-0.38,9.85,0.0,-0.0625,0.0625,-16.875,9.6875,-45.25
2021-06-17T15:56:22.994,0.04,-0.41,9.86,-0.0625,-0.0625,0.0625,-16.875,9.6875,-45.25
2021-06-17T15:56:23.007,0.06,-0.4,9.84,-0.0625,0.0625,-0.0625,-16.5,8.5,-44.75
2021-06-17T15:56:23.02,0.06,-0.39,9.83,-0.0625,0.125,-0.0625,-16.5,8.5,-44.75
2021-06-17T15:56:23.033,0.06,-0.41,9.83,-0.1875,0.125,0.1875,-16.5,8.5,-44.75
2021-06-17T15:56:23.046,0.05,-0.41,9.84,-0.0625,-0.0625,-0.0625,-16.5,8.5,-44.75
2021-06-17T15:56:23.059,0.04,-0.38,9.86,-0.0625,0.0,0.125,-16.5,9.6875,-46.0
2021-06-17T15:56:23.071,0.05,-0.4,9.83,-0.125,0.0625,-0.0625,-16.5,9.6875,-46.0
2021-06-17T15:56:23.084,0.05,-0.4,9.87,-0.0625,0.125,0.125,-16.5,9.6875,-46.0
2021-06-17T15:56:23.098,0.04,-0.41,9.85,-0.0625,-0.0625,-0.125,-16.5,9.6875,-46.0
2021-06-17T15:56:23.111,0.07,-0.39,9.85,0.125,-0.0625,0.0,-16.1875,8.875,-45.25
2021-06-17T15:56:23.123,0.06,-0.39,9.83,0.0625,-0.0625,0.0,-16.1875,8.875,-45.25
2021-06-17T15:56:23.136,0.07,-0.01,-0.01,-0.0625,0.0,0.0,-0.0625,-0.0625,-0.0625
2021-06-17T15:56:23.149,0.04,-0.41,9.84,0.0,-0.1875,0.0,-16.1875,8.875,-45.25
2021-06-17T15:56:23.162,0.06,-0.4,9.82,-0.0625,0.0625,0.0625,-16.1875,8.1875,-45.25
2021-06-17T15:56:23.175,0.05,-0.41,9.83,-0.125,-0.125,0.0,-16.1875,8.1875,-45.25
2021-06-17T15:56:23.209,0.07,-0.4,9.84,0.0,0.0625,-0.0625,-17.25,8.875,-44.375
2021-06-17T15:56:23.222,0.06,-0.39,9.82,-0.125,-0.0625,0.0,-17.25,8.875,-44.375
2021-06-17T15:56:23.235,0.05,-0.42,9.87,0.0,0.0,0.125,-17.25,8.875,-44.375
2021-06-17T15:56:23.248,0.04,-0.42,9.87,0.0,0.0625,0.0,-15.75,8.875,-45.25
2021-06-17T15:56:23.261,0.05,-0.39,9.84,0.0625,0.0625,0.0,-15.75,8.875,-45.25
2021-06-17T15:56:23.274,0.06,-0.41,9.84,-0.125,-0.125,0.0,-15.75,8.875,-45.25
2021-06-17T15:56:23.286,0.06,-0.4,9.85,0.0625,-0.0625,0.0625,-15.75,8.875,-45.25
2021-06-17T15:56:23.299,0.07,-0.41,9.85,0.0625,-0.125,-0.0625,-16.5,9.25,-45.5625
2021-06-17T15:56:23.312,0.05,-0.41,9.85,-0.0625,-0.1875,0.1875,-16.5,9.25,-45.5625
2021-06-17T15:56:23.325,0.05,-0.39,9.84,0.0,-0.0625,0.0625,-16.5,9.25,-45.5625
2021-06-17T15:56:23.338,0.04,-0.4,9.86,0.0625,0.0625,0.125,-16.5,9.25,-45.5625
2021-06-17T15:56:23.351,0.04,-0.38,9.87,0.0625,0.0,0.0,-16.5,9.25,-46.0
2021-06-17T15:56:23.363,0.06,-0.39,9.82,0.1875,0.0,0.0,-16.5,9.25,-46.0
2021-06-17T15:56:23.376,0.04,-0.39,9.84,0.0,-0.125,0.0625,-16.5,9.25,-46.0
2021-06-17T15:56:23.389,0.03,-0.41,9.83,0.0625,0.0625,0.0625,-16.5,9.25,-46.0
2021-06-17T15:56:23.402,0.03,-0.4,9.86,-0.0625,0.0,0.0,-16.875,8.5,-45.5625
2021-06-17T15:56:23.443,0.07,-0.38,9.85,0.125,-0.0625,0.125,-16.875,8.5,-45.5625
2021-06-17T15:56:23.456,0.05,-0.38,9.87,0.0,-0.125,0.0625,-16.5,9.25,-45.5625
2021-06-17T15:56:23.469,0.04,-0.4,9.82,0.0625,-0.0625,-0.0625,-16.5,9.25,-45.5625
2021-06-17T15:56:23.482,0.05,-0.41,9.86,0.0,-0.125,0.0625,-16.5,9.25,-45.5625
2021-06-17T15:56:23.495,0.04,-0.41,9.86,0.0,-0.0625,-0.0625,-16.5,9.25,-45.5625
2021-06-17T15:56:23.507,0.07,-0.4,9.85,0.0625,0.0625,0.0,-16.5,8.1875,-44.75
2021-06-17T15:56:23.52,0.04,-0.41,9.84,0.0625,0.125,0.0625,-16.5,8.1875,-44.75
2021-06-17T15:56:23.533,0.07,-0.4,9.83,0.0,0.0,0.0,-16.5,8.1875,-44.75
2021-06-17T15:56:23.546,0.05,-0.39,9.86,0.0,0.0625,0.0625,-16.5,8.1875,-44.75
2021-06-17T15:56:23.56,0.05,-0.39,9.85,0.0,-0.25,0.0625,-16.1875,8.1875,-45.5625
2021-06-17T15:56:23.572,0.06,-0.41,9.84,0.0,0.0,0.0,-16.1875,8.1875,-45.5625
2021-06-17T15:56:23.585,0.04,-0.4,9.84,0.0625,0.0,0.125,-16.1875,8.1875,-45.5625
2021-06-17T15:56:23.598,0.04,-0.4,9.84,0.0,0.0625,-0.125,-16.1875,8.1875,-45.5625
2021-06-17T15:56:23.611,0.06,-0.41,9.82,0.0,0.0625,0.0,-15.75,9.25,-45.5625
2021-06-17T15:56:23.624,0.06,-0.38,9.83,0.125,0.0,-0.125,-15.75,9.25,-45.5625
2021-06-17T15:56:23.637,0.04,-0.4,9.85,0.0,0.125,-0.0625,-15.75,9.25,-45.5625
2021-06-17T15:56:23.65,0.05,-0.4,9.86,0.125,0.0,0.0625,-15.75,9.25,-45.5625
2021-06-17T15:56:23.67,0.05,-0.39,9.82,-0.0625,0.125,0.0625,-16.1875,8.875,-45.5625
2021-06-17T15:56:23.684,0.05,-0.41,9.85,0.0,0.0625,0.125,-16.1875,8.875,-45.5625
2021-06-17T15:56:23.697,0.07,-0.42,9.85,-0.0625,0.0,0.125,-16.1875,9.25,-45.25
2021-06-17T15:56:23.709,0.03,-0.39,9.83,0.0,0.0625,0.0625,-16.1875,9.25,-45.25
2021-06-17T15:56:23.722,0.04,-0.4,9.84,0.0,-0.0625,0.0625,-16.1875,9.25,-45.25
2021-06-17T15:56:23.735,0.05,-0.4,9.83,0.0,0.0,0.125,-16.1875,9.25,-45.25
2021-06-17T15:56:23.748,0.05,-0.41,9.87,0.0,-0.125,0.0625,-15.75,9.25,-45.5625
2021-06-17T15:56:23.761,0.05,-0.4,9.85,0.0625,0.0,-0.1875,-15.75,9.25,-45.5625
2021-06-17T15:56:23.774,0.05,-0.41,9.83,0.0625,0.1875,0.0,-15.75,9.25,-45.5625
2021-06-17T15:56:23.786,0.03,-0.39,9.86,0.125,-0.0625,-0.125,-15.75,9.25,-45.5625
2021-06-17T15:56:23.8,0.02,-0.42,9.82,0.0,-0.0625,0.0,-15.0,8.5,-45.5625
2021-06-17T15:56:23.813,0.04,-0.39,9.84,0.0625,0.125,0.0,-15.0,8.5,-45.5625
2021-06-17T15:56:23.826,0.05,-0.41,9.86,-0.125,-0.0625,0.0625,-15.0,8.5,-45.5625
2021-06-17T15:56:23.838,0.06,-0.41,9.83,-0.125,0.1875,0.0625,-15.0,8.5,-45.5625
2021-06-17T15:56:23.851,0.05,-0.39,9.83,0.0625,0.0625,-0.125,-16.1875,9.25,-46.0
2021-06-17T15:56:23.864,0.06,-0.4,9.85,-0.0625,0.125,0.125,-16.1875,9.25,-46.0
2021-06-17T15:56:23.877,0.05,-0.4,9.81,0.0,0.125,0.0,-16.1875,9.25,-46.0
2021-06-17T15:56:23.901,0.04,-0.42,9.84,0.0,-0.0625,0.0,-15.75,8.5,-46.0
2021-06-17T15:56:23.914,0.06,-0.39,9.86,0.0,0.0,0.0,-15.75,8.5,-46.0
2021-06-17T15:56:23.927,0.06,-0.39,9.84,0.125,0.0625,-0.0625,-15.75,8.5,-46.0
2021-06-17T15:56:23.94,0.07,-0.43,9.85,0.0,0.0625,-0.0625,-15.75,8.5,-46.0
2021-06-17T15:56:23.953,0.05,-0.39,9.86,0.0,0.1875,0.0,-16.5,8.5,-45.5625
2021-06-17T15:56:23.966,0.05,-0.41,9.84,0.125,0.0,0.0,-16.5,8.5,-45.5625
2021-06-17T15:56:23.978,0.05,-0.39,9.83,0.0625,-0.125,0.0,-16.5,8.5,-45.5625
2021-06-17T15:56:23.991,0.06,-0.39,9.84,0.1875,0.0,-0.0625,-16.5,8.5,-45.5625
2021-06-17T15:56:24.004,0.04,-0.4,9.85,0.125,0.0,-0.125,-17.25,8.5,-45.1875
2021-06-17T15:56:24.017,0.04,-0.4,9.82,0.0,0.0625,0.0,-17.25,8.5,-45.1875
2021-06-17T15:56:24.03,0.07,-0.39,9.83,0.0,0.0,0.0,-17.25,8.5,-45.1875
2021-06-17T15:56:24.043,0.05,-0.43,9.86,0.0,0.0,0.0,-17.25,8.5,-45.1875
2021-06-17T15:56:24.055,0.05,-0.39,9.85,0.0,-0.0625,-0.0625,-16.5,8.875,-45.1875
2021-06-17T15:56:24.068,0.06,-0.39,9.84,0.1875,-0.25,0.0,-16.5,8.875,-45.1875
2021-06-17T15:56:24.081,0.06,-0.39,9.83,0.0625,0.125,0.0625,-16.5,8.875,-45.1875
2021-06-17T15:56:24.094,0.07,-0.41,9.84,0.125,0.0,-0.0625,-16.5,8.875,-45.1875
2021-06-17T15:56:24.107,0.06,-0.41,9.84,0.0625,0.0625,0.0,-16.5,8.875,-45.5625
2021-06-17T15:56:24.131,0.05,-0.4,9.86,0.0,0.1875,-0.125,-16.5,8.875,-45.5625
2021-06-17T15:56:24.149,0.05,-0.42,9.87,0.0,0.125,0.0,-16.5,8.875,-45.5625
2021-06-17T15:56:24.162,0.05,-0.39,9.88,0.25,-0.0625,0.0,-16.1875,10.75,-44.375
2021-06-17T15:56:24.175,0.06,-0.41,9.83,0.0625,0.125,-0.0625,-16.1875,10.75,-44.375
2021-06-17T15:56:24.187,0.07,-0.4,9.84,0.125,0.0,0.0625,-16.1875,10.75,-44.375
2021-06-17T15:56:24.2,0.05,-0.4,9.85,0.0,-0.125,-0.0625,-16.1875,10.75,-44.375
2021-06-17T15:56:24.213,0.03,-0.4,9.85,0.0,0.125,-0.0625,-16.875,8.875,-45.5625
2021-06-17T15:56:24.226,0.06,-0.37,9.83,-0.0625,0.0,0.0,-16.875,8.875,-45.5625
2021-06-17T15:56:24.239,0.05,-0.4,9.84,-0.0625,0.0,-0.125,-16.875,8.875,-45.5625
2021-06-17T15:56:24.251,0.06,-0.39,9.83,-0.0625,0.0,-0.0625,-16.875,8.875,-45.5625
2021-06-17T15:56:24.265,0.05,-0.4,9.86,0.0,0.0,0.125,-16.1875,8.5,-45.5625
2021-06-17T15:56:24.278,0.06,-0.4,9.83,0.0,0.0,-0.0625,-16.1875,8.5,-45.5625
2021-06-17T15:56:24.291,0.06,-0.4,9.83,0.0,-0.125,0.0,-16.1875,8.5,-45.5625
2021-06-17T15:56:24.304,0.06,-0.4,9.84,-0.0625,-0.0625,0.0625,-16.875,8.875,-45.5625
2021-06-17T15:56:24.317,0.07,-0.4,9.83,-0.0625,-0.0625,0.0625,-16.875,8.875,-45.5625
2021-06-17T15:56:24.329,0.04,-0.41,9.83,-0.125,0.0,0.1875,-16.875,8.875,-45.5625
2021-06-17T15:56:24.342,0.06,-0.42,9.83,-0.125,-0.0625,0.0,-16.875,8.875,-45.5625
2021-06-17T15:56:24.377,0.05,-0.4,9.83,0.0625,0.0,0.125,-15.375,9.25,-46.75
2021-06-17T15:56:24.39,0.05,-0.42,9.84,0.125,0.0,0.125,-15.375,9.25,-46.75
2021-06-17T15:56:24.402,0.04,-0.4,9.86,-0.0625,0.0,0.0,-15.75,8.875,-45.25
2021-06-17T15:56:24.415,0.06,-0.39,9.85,0.0625,0.125,0.125,-15.75,8.875,-45.25
2021-06-17T15:56:24.428,0.06,-0.4,9.83,0.0625,0.0625,0.0,-15.75,8.875,-45.25
2021-06-17T15:56:24.441,0.05,-0.39,9.85,0.0,0.0625,0.0625,-15.75,8.875,-45.25
2021-06-17T15:56:24.454,0.06,-0.4,9.85,0.0625,-0.0625,0.0625,-17.25,8.875,-44.375
2021-06-17T15:56:24.467,0.07,-0.4,9.86,0.0,0.0,0.0,-17.25,8.875,-44.375
2021-06-17T15:56:24.479,0.05,-0.4,9.84,0.0625,-0.0625,0.125,-17.25,8.875,-44.375
2021-06-17T15:56:24.492,0.08,-0.41,9.86,0.0625,0.125,0.0,-17.25,8.875,-44.375
2021-06-17T15:56:24.505,0.05,-0.41,9.87,0.0,0.0625,0.125,-16.1875,8.1875,-46.75
2021-06-17T15:56:24.518,0.07,-0.41,9.85,-0.125,-0.125,0.0,-16.1875,8.1875,-46.75
2021-06-17T15:56:24.531,0.05,-0.4,9.83,0.0,0.0,0.0625,-16.1875,8.1875,-46.75
2021-06-17T15:56:24.544,0.04,-0.4,9.85,-0.0625,-0.0625,0.0625,-16.1875,8.1875,-46.75
2021-06-17T15:56:24.557,0.05,-0.42,9.83,0.0625,0.0,0.0,-16.1875,8.875,-46.0625
2021-06-17T15:56:24.569,0.05,-0.38,9.83,-0.0625,0.125,0.0,-16.1875,8.875,-46.0625
2021-06-17T15:56:24.582,0.06,-0.41,9.86,0.0625,-0.0625,0.0625,-16.1875,8.875,-46.0625
2021-06-17T15:56:24.611,0.05,-0.4,9.85,-0.0625,0.0,0.0625,-16.1875,8.5,-44.375
2021-06-17T15:56:24.624,0.05,-0.4,9.83,0.0625,0.0,0.0,-16.1875,8.5,-44.375
2021-06-17T15:56:24.636,0.07,-0.4,9.83,0.0625,0.0625,0.0,-16.1875,8.5,-44.375
2021-06-17T15:56:24.649,0.05,-0.39,9.85,0.0,0.0,0.0,-16.1875,8.5,-44.375
2021-06-17T15:56:24.662,0.06,-0.4,9.84,-0.0625,0.0625,0.0,-16.1875,9.25,-45.25
2021-06-17T15:56:24.675,0.06,-0.39,9.81,0.0,-0.0625,0.0625,-16.1875,9.25,-45.25
2021-06-17T15:56:24.688,0.04,-0.39,9.84,0.0625,0.0,0.0,-16.1875,9.25,-45.25
2021-06-17T15:56:24.701,0.06,-0.4,9.84,0.1875,-0.0625,0.0,-16.1875,9.25,-45.25
2021-06-17T15:56:24.713,0.05,-0.39,9.84,0.0,0.125,-0.0625,-15.375,8.1875,-45.25
2021-06-17T15:56:24.726,0.06,-0.4,9.81,0.0625,-0.0625,0.0,-15.375,8.1875,-45.25
2021-06-17T15:56:24.74,0.03,-0.41,9.86,0.0625,0.0625,0.0,-15.375,8.1875,-45.25
2021-06-17T15:56:24.753,0.06,-0.42,9.84,0.0,0.0,0.0,-15.375,8.1875,-45.25
2021-06-17T15:56:24.765,0.06,-0.42,9.82,0.125,0.0,-0.0625,-16.5,8.875,-45.5625
2021-06-17T15:56:24.778,0.02,-0.39,9.83,0.0625,-0.125,0.125,-16.5,8.875,-45.5625
2021-06-17T15:56:24.791,0.05,-0.39,9.83,0.125,0.0,0.0,-16.5,8.875,-45.5625
2021-06-17T15:56:24.804,0.05,-0.39,9.88,0.0,-0.0625,0.0625,-16.5,8.1875,-46.0
2021-06-17T15:56:24.817,0.05,-0.41,9.86,0.125,-0.0625,-0.0625,-16.5,8.1875,-46.0
2021-06-17T15:56:24.837,0.05,-0.41,9.87,0.0,0.0625,0.0,-16.5,8.1875,-46.0
2021-06-17T15:56:24.851,0.05,-0.42,9.86,0.0625,0.0625,0.0,-16.5,9.25,-46.0625
2021-06-17T15:56:24.864,0.05,-0.38,9.84,0.0625,-0.0625,0.0,-16.5,9.25,-46.0625
2021-06-17T15:56:24.877,0.07,-0.4,9.83,0.0,0.0,0.0625,-16.5,9.25,-46.0625
2021-06-17T15:56:24.89,0.07,-0.39,9.84,0.0625,0.125,-0.0625,-16.5,9.25,-46.0625
2021-06-17T15:56:24.903,0.03,-0.42,9.83,0.0,-0.0625,0.0,-16.1875,9.25,-45.5625
2021-06-17T15:56:24.915,0.05,-0.41,9.85,0.0625,-0.125,0.125,-16.1875,9.25,-45.5625
2021-06-17T15:56:24.928,0.05,-0.41,9.84,0.0,0.125,0.0625,-16.1875,9.25,-45.5625
2021-06-17T15:56:24.941,0.05,-0.4,9.85,0.0625,0.0,0.0625,-16.1875,9.25,-45.5625
2021-06-17T15:56:24.954,0.07,-0.4,9.84,-0.0625,-0.0625,0.125,-16.1875,8.5,-46.375
2021-06-17T15:56:24.967,0.06,-0.39,9.86,-0.0625,-0.125,0.125,-16.1875,8.5,-46.375
2021-06-17T15:56:24.98,0.04,-0.41,9.82,0.0,0.0625,0.125,-16.1875,8.5,-46.375
2021-06-17T15:56:24.992,0.06,-0.4,9.85,0.125,-0.0625,0.0,-16.1875,8.5,-46.375
2021-06-17T15:56:25.005,0.05,-0.41,9.84,0.0,0.0,0.0625,-16.5,9.25,-45.5625
2021-06-17T15:56:25.018,0.04,-0.41,9.87,0.0,0.0,0.0625,-16.5,9.25,-45.5625
2021-06-17T15:56:25.031,0.04,-0.41,9.84,0.125,0.0,0.0625,-16.5,9.25,-45.5625
2021-06-17T15:56:25.044,0.06,-0.4,9.85,0.0625,0.125,0.0625,-16.5,9.25,-45.5625
2021-06-17T15:56:25.067,0.05,-0.4,9.84,-0.0625,0.0,-0.0625,-16.875,8.875,-45.1875
2021-06-17T15:56:25.085,0.05,-0.39,9.83,0.0,-0.0625,0.125,-16.875,8.875,-45.1875
2021-06-17T15:56:25.098,0.03,-0.41,9.85,-0.0625,-0.0625,0.0625,-16.875,8.875,-45.1875
2021-06-17T15:56:25.111,0.04,-0.42,9.84,0.0,0.0625,-0.0625,-16.5,7.75,-46.0625
2021-06-17T15:56:25.124,0.06,-0.41,9.84,0.0625,-0.0625,0.0,-16.5,7.75,-46.0625
2021-06-17T15:56:25.136,0.05,-0.39,9.85,0.0,0.0625,0.0,-16.5,7.75,-46.0625
2021-06-17T15:56:25.149,0.04,-0.41,9.84,0.125,-0.125,0.0,-16.5,7.75,-46.0625
2021-06-17T15:56:25.162,0.06,-0.39,9.86,0.0625,0.0625,0.0,-16.5,8.5,-45.5625
2021-06-17T15:56:25.175,0.04,-0.41,9.84,0.125,-0.0625,0.0625,-16.5,8.5,-45.5625
2021-06-17T15:56:25.188,0.06,-0.4,9.86,-0.0625,0.125,0.0,-16.5,8.5,-45.5625
2021-06-17T15:56:25.201,0.06,-0.39,9.87,-0.0625,-0.0625,0.0625,-16.5,8.5,-45.5625
2021-06-17T15:56:25.214,0.04,-0.4,9.85,0.125,0.0,0.125,-16.5,9.25,-46.0
2021-06-17T15:56:25.227,0.07,-0.39,9.83,0.0,-0.0625,0.0,-16.5,9.25,-46.0
2021-06-17T15:56:25.24,0.06,-0.38,9.85,0.125,0.0625,0.125,-16.5,9.25,-46.0
2021-06-17T15:56:25.253,0.06,-0.41,9.87,0.125,0.0625,-0.0625,-16.5,9.25,-46.0
2021-06-17T15:56:25.266,0.05,-0.4,9.86,-0.0625,0.1875,0.0625,-17.25,9.6875,-45.25
2021-06-17T15:56:25.278,0.05,-0.38,9.85,-0.0625,0.0,0.0,-17.25,9.6875,-45.25
2021-06-17T15:56:25.313,0.06,-0.4,9.86,0.125,0.0625,-0.0625,-15.75,9.25,-45.5625
2021-06-17T15:56:25.326,0.07,-0.37,9.84,0.0,-0.0625,0.0,-15.75,9.25,-45.5625
2021-06-17T15:56:25.339,0.05,-0.43,9.86,-0.0625,0.0625,0.0,-15.75,9.25,-45.5625
2021-06-17T15:56:25.352,0.07,-0.41,9.85,-0.125,0.0,0.0,-15.75,9.25,-45.5625
2021-06-17T15:56:25.364,0.06,-0.41,9.84,-0.0625,0.125,0.0625,-16.5,8.875,-45.5625
2021-06-17T15:56:25.377,0.03,-0.4,9.82,-0.125,0.0625,0.0625,-16.5,8.875,-45.5625
2021-06-17T15:56:25.39,0.06,-0.41,9.85,-0.125,-0.0625,-0.125,-16.5,8.875,-45.5625
2021-06-17T15:56:25.403,0.05,-0.4,9.87,-0.0625,-0.125,0.1875,-15.75,10.0,-45.1875
2021-06-17T15:56:25.416,0.07,-0.39,9.84,0.0625,-0.0625,0.125,-15.75,10.0,-45.1875
2021-06-17T15:56:25.429,0.05,-0.42,9.81,-0.125,-0.0625,0.0625,-15.75,10.0,-45.1875
2021-06-17T15:56:25.441,0.05,-0.4,9.84,0.0,-0.0625,0.0,-15.75,10.0,-45.1875
2021-06-17T15:56:25.454,0.05,-0.4,9.88,0.0625,0.0,-0.0625,-16.875,8.1875,-46.0
2021-06-17T15:56:25.467,0.05,-0.4,9.87,0.0625,-0.0625,0.0,-16.875,8.1875,-46.0
2021-06-17T15:56:25.48,0.03,-0.42,9.82,0.0,-0.0625,0.125,-16.875,8.1875,-46.0
2021-06-17T15:56:25.493,0.07,-0.4,9.88,-0.0625,-0.0625,0.0625,-16.875,8.1875,-46.0
2021-06-17T15:56:25.506,0.05,-0.38,9.82,-0.125,0.0625,0.0,-16.1875,9.25,-44.75
2021-06-17T15:56:25.518,0.04,-0.4,9.86,0.0,0.0,0.125,-16.1875,9.25,-44.75
2021-06-17T15:56:25.547,0.05,-0.41,9.85,-0.0625,-0.125,0.0625,-16.1875,9.25,-44.75
2021-06-17T15:56:25.56,0.07,-0.41,9.86,0.0,-0.0625,0.0625,-16.875,9.25,-45.1875
2021-06-17T15:56:25.573,0.04,-0.4,9.84,0.0,0.0,-0.0625,-16.875,9.25,-45.1875
2021-06-17T15:56:25.586,0.05,-0.41,9.83,-0.125,-0.125,0.125,-16.875,9.25,-45.1875
2021-06-17T15:56:25.598,0.03,-0.4,9.85,0.0,0.0,0.0625,-16.875,9.25,-45.1875
2021-06-17T15:56:25.611,0.05,-0.39,9.83,-0.125,0.0,0.1875,-16.5,8.875,-45.5625
2021-06-17T15:56:25.624,0.07,-0.42,9.85,-0.0625,0.0,-0.0625,-16.5,8.875,-45.5625
2021-06-17T15:56:25.637,0.05,-0.37,9.85,0.0,0.0625,0.125,-16.5,8.875,-45.5625
2021-06-17T15:56:25.65,0.06,-0.4,9.85,-0.0625,0.125,0.0625,-16.5,8.875,-45.5625
2021-06-17T15:56:25.663,0.06,-0.4,9.85,0.0,0.0,0.0625,-16.5,8.5,-46.0625
2021-06-17T15:56:25.676,0.04,-0.4,9.82,-0.0625,0.0,0.0,-16.5,8.5,-46.0625
2021-06-17T15:56:25.689,0.06,-0.41,9.86,0.0625,0.1875,0.0,-16.5,8.5,-46.0625
2021-06-17T15:56:25.702,0.05,-0.38,9.86,0.0625,0.0625,0.125,-16.5,8.5,-46.0625
2021-06-17T15:56:25.715,0.04,-0.38,9.87,0.125,-0.0625,0.0625,-16.5,8.5,-46.375
2021-06-17T15:56:25.727,0.06,-0.42,9.85,0.0625,0.0625,0.0,-16.5,8.5,-46.375
2021-06-17T15:56:25.74,0.05,-0.42,9.85,-0.125,0.0625,0.0,-16.5,8.5,-46.375
2021-06-17T15:56:25.753,0.04,-0.4,9.86,-0.0625,-0.0625,0.1875,-16.5,8.5,-46.375
2021-06-17T15:56:25.774,0.05,-0.4,9.8,0.0625,0.0,-0.0625,-16.1875,8.5,-45.5625
2021-06-17T15:56:25.787,0.05,-0.42,9.84,0.125,-0.0625,-0.125,-16.1875,8.5,-45.5625
2021-06-17T15:56:25.8,0.05,-0.4,9.85,0.125,-0.0625,0.0,-16.1875,8.5,-45.5625
2021-06-17T15:56:25.813,0.05,-0.41,9.84,0.0625,-0.125,0.125,-15.75,8.5,-45.5625
2021-06-17T15:56:25.826,0.04,-0.4,9.85,0.0,0.0,0.0,-15.75,8.5,-45.5625
2021-06-17T15:56:25.839,0.05,-0.44,9.85,0.1875,0.0,-0.0625,-15.75,8.5,-45.5625
2021-06-17T15:56:25.852,0.05,-0.44,9.83,0.0,0.0,0.0,-15.75,8.5,-45.5625
2021-06-17T15:56:25.864,0.06,-0.42,9.85,0.0,0.0625,0.0,-16.5,8.1875,-46.375
2021-06-17T15:56:25.877,0.06,-0.4,9.84,0.0,0.0625,-0.0625,-16.5,8.1875,-46.375
2021-06-17T15:56:25.89,0.06,-0.4,9.83,-0.0625,0.0625,-0.0625,-16.5,8.1875,-46.375
2021-06-17T15:56:25.903,0.05,-0.39,9.85,-0.125,0.1875,-0.1875,-16.875,8.875,-47.25
2021-06-17T15:56:25.916,0.04,-0.4,9.86,0.0,0.0,-0.0625,-16.875,8.875,-47.25
2021-06-17T15:56:25.929,0.05,-0.4,9.85,0.0625,-0.125,0.0625,-16.875,8.875,-47.25
2021-06-17T15:56:25.942,0.06,-0.4,9.82,0.125,-0.1875,0.0,-16.875,8.875,-47.25
2021-06-17T15:56:25.954,0.07,-0.4,9.85,0.0,0.0625,0.0,-16.5,9.25,-46.0
2021-06-17T15:56:25.967,0.04,-0.4,9.84,0.0,0.1875,-0.0625,-16.5,9.25,-46.0
2021-06-17T15:56:25.98,0.05,-0.39,9.84,-0.0625,0.25,0.0,-16.5,9.25,-46.0
2021-06-17T15:56:26.004,0.04,-0.4,9.85,0.0,0.0625,0.0,-16.1875,8.875,-45.25
2021-06-17T15:56:26.022,0.03,-0.41,9.84,0.0625,-0.25,0.0,-16.1875,8.875,-45.25
2021-06-17T15:56:26.034,0.06,-0.42,9.84,-0.0625,-0.125,-0.0625,-16.1875,8.875,-45.25
2021-06-17T15:56:26.047,0.06,-0.39,9.88,0.0625,-0.0625,-0.0625,-16.1875,8.875,-45.25
2021-06-17T15:56:26.06,0.05,-0.4,9.87,0.0625,-0.125,-0.125,-16.1875,8.875,-45.25
2021-06-17T15:56:26.073,0.05,-0.4,9.86,0.0625,-0.125,0.125,-16.1875,8.875,-45.25
2021-06-17T15:56:26.086,0.04,-0.42,9.82,0.0625,0.125,-0.0625,-16.1875,8.875,-45.25
2021-06-17T15:56:26.099,0.06,-0.39,9.87,-0.0625,0.125,0.0,-16.1875,8.875,-45.25
2021-06-17T15:56:26.111,0.07,-0.41,9.87,0.0,-0.125,0.0625,-16.875,8.5,-44.75
2021-06-17T15:56:26.124,0.06,-0.4,9.83,0.0,-0.125,0.0625,-16.875,8.5,-44.75
2021-06-17T15:56:26.138,0.05,-0.4,9.85,0.125,0.0,-0.0625,-16.875,8.5,-44.75
2021-06-17T15:56:26.151,0.06,-0.38,9.84,0.0,0.0,0.0,-16.875,8.5,-44.75
2021-06-17T15:56:26.163,0.05,-0.4,9.86,0.0625,-0.25,0.0,-16.5,8.5,-46.0
2021-06-17T15:56:26.176,0.07,-0.43,9.85,0.0625,0.0,0.0,-16.5,8.5,-46.0
2021-06-17T15:56:26.189,0.03,-0.41,9.86,0.1875,-0.125,-0.1875,-16.5,8.5,-46.0
2021-06-17T15:56:26.202,0.05,-0.38,9.85,0.0625,-0.0625,0.0,-16.5,8.5,-46.0
2021-06-17T15:56:26.215,0.04,-0.39,9.84,-0.0625,-0.125,0.0,-16.5,9.25,-44.375
2021-06-17T15:56:26.249,0.05,-0.38,9.84,0.125,-0.0625,-0.1875,-16.5,9.25,-44.375
2021-06-17T15:56:26.262,0.04,-0.42,9.87,0.0625,0.0625,-0.125,-16.1875,9.25,-45.5625
2021-06-17T15:56:26.275,0.02,-0.4,9.83,0.0625,0.0625,-0.0625,-16.1875,9.25,-45.5625
2021-06-17T15:56:26.288,0.06,-0.4,9.84,0.0,0.0625,-0.0625,-16.1875,9.25,-45.5625
2021-06-17T15:56:26.301,0.07,-0.41,9.86,-0.0625,0.0625,0.1875,-16.1875,9.25,-45.5625
2021-06-17T15:56:26.314,0.06,-0.41,9.86,-0.0625,0.0625,0.0,-16.875,8.5,-46.0625
2021-06-17T15:56:26.326,0.06,-0.41,9.81,0.0,0.125,0.0,-16.875,8.5,-46.0625
2021-06-17T15:56:26.339,0.05,-0.4,9.86,-0.125,0.1875,0.0625,-16.875,8.5,-46.0625
2021-06-17T15:56:26.352,0.07,-0.43,9.87,-0.125,0.125,-0.1875,-16.875,8.5,-46.0625
2021-06-17T15:56:26.365,0.07,-0.39,9.85,0.0,-0.125,0.125,-16.5,8.5,-45.5625
2021-06-17T15:56:26.378,0.06,-0.39,9.83,0.0625,0.0,0.0,-16.5,8.5,-45.5625
2021-06-17T15:56:26.39,0.06,-0.4,9.85,-0.0625,0.0,-0.0625,-16.5,8.5,-45.5625
2021-06-17T15:56:26.403,0.06,-0.4,9.85,-0.0625,0.125,0.0625,-16.5,8.5,-45.5625
2021-06-17T15:56:26.416,0.04,-0.41,9.84,0.0,0.125,-0.0625,-16.5,8.875,-44.375
2021-06-17T15:56:26.429,0.06,-0.41,9.83,0.0,0.0,0.0625,-16.5,8.875,-44.375
2021-06-17T15:56:26.442,0.07,-0.39,9.82,0.0625,0.0625,0.0,-16.5,8.875,-44.375
2021-06-17T15:56:26.483,0.04,-0.39,9.82,0.0625,0.0,0.125,-16.5,8.875,-44.75
2021-06-17T15:56:26.496,0.06,-0.4,9.84,-0.0625,0.0625,0.0,-16.5,8.875,-44.75
2021-06-17T15:56:26.509,0.07,-0.41,9.87,-0.125,0.125,0.0625,-16.5,8.5,-45.5625
2021-06-17T15:56:26.522,0.05,-0.41,9.86,-0.1875,0.0625,0.0,-16.5,8.5,-45.5625
2021-06-17T15:56:26.534,0.04,-0.4,9.84,-0.125,0.0625,-0.0625,-16.5,8.5,-45.5625
2021-06-17T15:56:26.547,0.05,-0.42,9.84,0.0,0.0625,0.0625,-16.5,8.5,-45.5625
2021-06-17T15:56:26.56,0.05,-0.41,9.84,-0.0625,0.0,0.0,-16.1875,9.25,-45.5625
2021-06-17T15:56:26.573,0.05,-0.4,9.85,-0.125,0.0,0.125,-16.1875,9.25,-45.5625
2021-06-17T15:56:26.586,0.05,-0.39,9.82,-0.125,0.0625,0.0625,-16.1875,9.25,-45.5625
2021-06-17T15:56:26.599,0.06,-0.41,9.84,-0.0625,0.0625,0.125,-16.1875,9.25,-45.5625
2021-06-17T15:56:26.612,0.05,-0.43,9.86,-0.0625,0.0625,0.0625,-16.875,9.25,-44.75
2021-06-17T15:56:26.625,0.06,-0.39,9.84,0.0,0.125,0.0625,-16.875,9.25,-44.75
2021-06-17T15:56:26.638,0.07,-0.4,9.84,-0.0625,0.125,0.0,-16.875,9.25,-44.75
2021-06-17T15:56:26.651,0.05,-0.41,9.86,-0.0625,-0.0625,0.1875,-16.875,9.25,-44.75
2021-06-17T15:56:26.664,0.05,-0.38,9.86,0.0,0.0,0.0,-16.5,7.75,-45.25
2021-06-17T15:56:26.676,0.07,-0.01,-0.01,0.0625,0.0,0.0625,-0.0625,-0.0625,-0.0625
2021-06-17T15:56:26.689,0.05,-0.42,9.84,-0.0625,0.0,0.0,-16.5,7.75,-45.25
2021-06-17T15:56:26.71,0.05,-0.41,9.87,0.0,0.1875,0.0,-16.1875,9.25,-46.75
2021-06-17T15:56:26.724,0.07,-0.41,9.84,-0.125,0.0625,-0.0625,-16.1875,9.25,-46.75
2021-06-17T15:56:26.737,0.06,-0.41,9.85,-0.25,0.0,0.0625,-16.1875,9.25,-46.75
2021-06-17T15:56:26.75,0.07,-0.41,9.83,-0.0625,-0.125,0.0,-16.1875,9.25,-46.75
2021-06-17T15:56:26.762,0.05,-0.39,9.85,0.0,0.0625,0.0625,-16.1875,8.875,-45.5625
2021-06-17T15:56:26.775,0.07,-0.39,9.83,0.0,-0.1875,0.0625,-16.1875,8.875,-45.5625
2021-06-17T15:56:26.788,0.05,-0.38,9.86,0.0625,-0.125,-0.0625,-16.1875,8.875,-45.5625
2021-06-17T15:56:26.801,0.05,-0.42,9.86,0.0,-0.0625,0.0,-16.1875,8.875,-45.5625
2021-06-17T15:56:26.814,0.05,-0.38,9.85,0.125,0.0,-0.0625,-17.25,8.5,-44.75
2021-06-17T15:56:26.827,0.06,-0.41,9.84,0.25,-0.0625,-0.0625,-17.25,8.5,-44.75
2021-06-17T15:56:26.84,0.03,-0.42,9.84,0.0,-0.125,-0.125,-17.25,8.5,-44.75
2021-06-17T15:56:26.853,0.03,-0.41,9.86,0.0625,-0.0625,0.0625,-17.25,8.5,-44.75
2021-06-17T15:56:26.866,0.06,-0.4,9.84,0.0625,-0.0625,-0.0625,-17.25,8.5,-45.5625
2021-06-17T15:56:26.878,0.05,-0.39,9.84,0.125,0.0625,-0.1875,-17.25,8.5,-45.5625
2021-06-17T15:56:26.891,0.05,-0.38,9.81,0.0625,-0.0625,0.125,-17.25,8.5,-45.5625
2021-06-17T15:56:26.904,0.04,-0.4,9.86,0.0,-0.1875,0.0,-17.25,8.5,-45.5625
2021-06-17T15:56:26.917,0.03,-0.4,9.83,0.125,0.125,0.0,-16.875,8.5,-46.0
2021-06-17T15:56:26.941,0.08,-0.4,9.84,0.125,0.0,0.0625,-16.875,8.5,-46.0
2021-06-17T15:56:26.954,0.05,-0.4,9.85,0.0,-0.0625,0.0625,-16.875,8.5,-46.0
2021-06-17T15:56:26.967,0.03,-0.41,9.87,-0.0625,0.125,-0.0625,-16.5,9.25,-45.5625
2021-06-17T15:56:26.98,0.03,-0.39,9.81,-0.0625,0.0,-0.125,-16.5,9.25,-45.5625
2021-06-17T15:56:26.993,0.07,-0.4,9.83,0.125,-0.0625,-0.0625,-16.5,9.25,-45.5625
2021-06-17T15:56:27.006,0.04,-0.38,9.87,0.125,-0.0625,0.0,-16.5,8.5,-46.375
2021-06-17T15:56:27.018,0.04,-0.41,9.85,0.0625,0.0625,-0.0625,-16.5,8.5,-46.375
2021-06-17T15:56:27.031,0.05,-0.39,9.84,0.0625,0.0,0.0,-16.5,8.5,-46.375
2021-06-17T15:56:27.044,0.05,-0.39,9.83,0.0,0.0625,-0.125,-16.5,8.5,-46.375
2021-06-17T15:56:27.057,0.06,-0.41,9.86,0.0,0.0625,-0.0625,-16.5,9.25,-45.25
2021-06-17T15:56:27.07,0.05,-0.39,9.84,0.0,-0.125,0.0,-16.5,9.25,-45.25
2021-06-17T15:56:27.083,0.08,-0.39,9.82,0.0,-0.0625,0.0,-16.5,9.25,-45.25
2021-06-17T15:56:27.095,0.06,-0.4,9.86,0.0625,-0.1875,0.0,-16.5,9.25,-45.25
2021-06-17T15:56:27.108,0.05,-0.39,9.85,-0.0625,0.125,-0.0625,-16.5,8.875,-44.75
2021-06-17T15:56:27.121,0.06,-0.41,9.84,0.0625,0.0,0.0625,-16.5,8.875,-44.75
2021-06-17T15:56:27.134,0.05,-0.42,9.82,0.0,0.0625,-0.0625,-16.5,8.875,-44.75
2021-06-17T15:56:27.147,0.06,-0.39,9.85,0.125,0.0,0.0,-16.5,8.875,-44.75
2021-06-17T15:56:27.171,0.05,-0.39,9.84,-0.0625,-0.0625,-0.0625,-17.25,9.6875,-45.5625
2021-06-17T15:56:27.189,0.05,-0.39,9.79,0.125,-0.125,-0.125,-17.25,9.6875,-45.5625
2021-06-17T15:56:27.202,0.05,-0.4,9.85,0.0,0.0,-0.1875,-17.25,9.6875,-45.5625
2021-06-17T15:56:27.214,0.05,-0.4,9.84,0.125,0.0,0.0,-16.5,9.25,-45.25
2021-06-17T15:56:27.227,0.05,-0.4,9.85,-0.0625,0.0,0.125,-16.5,9.25,-45.25
2021-06-17T15:56:27.24,0.06,-0.4,9.83,0.0,-0.0625,-0.0625,-16.5,9.25,-45.25
2021-06-17T15:56:27.253,0.04,-0.39,9.85,0.0,0.0,0.0,-16.5,9.25,-45.25
2021-06-17T15:56:27.266,0.07,-0.4,9.83,0.0,0.0,-0.0625,-16.5,8.875,-46.375
2021-06-17T15:56:27.279,0.03,-0.41,9.82,0.0625,-0.125,-0.0625,-16.5,8.875,-46.375
2021-06-17T15:56:27.291,0.05,-0.4,9.83,-0.0625,0.0,0.0,-16.5,8.875,-46.375
2021-06-17T15:56:27.305,0.04,-0.39,9.85,0.125,-0.0625,-0.0625,-16.5,8.875,-46.375
2021-06-17T15:56:27.318,0.05,-0.39,9.83,0.125,0.0,-0.0625,-16.5,8.1875,-45.5625
2021-06-17T15:56:27.331,0.04,-0.39,9.84,0.0,0.0625,-0.0625,-16.5,8.1875,-45.5625
2021-06-17T15:56:27.343,0.06,-0.4,9.83,-0.0625,-0.0625,0.125,-16.5,8.1875,-45.5625
2021-06-17T15:56:27.356,0.07,-0.39,9.84,-0.0625,0.125,0.0,-16.5,8.1875,-45.5625
2021-06-17T15:56:27.369,0.05,-0.4,9.84,-0.0625,-0.0625,-0.0625,-16.1875,8.1875,-45.1875
2021-06-17T15:56:27.382,0.06,-0.4,9.82,0.0,-0.0625,0.0,-16.1875,8.1875,-45.1875
2021-06-17T15:56:27.416,0.05,-0.39,9.83,0.125,0.0,-0.0625,-16.5,8.5,-45.25
2021-06-17T15:56:27.429,0.04,-0.4,9.82,0.0,0.0625,0.0,-16.5,8.5,-45.25
2021-06-17T15:56:27.442,0.05,-0.4,9.83,0.0625,0.0,-0.0625,-16.5,8.5,-45.25
2021-06-17T15:56:27.455,0.06,-0.39,9.83,0.125,-0.125,-0.125,-16.5,8.5,-45.25
2021-06-17T15:56:27.468,0.04,-0.4,9.87,0.0625,0.25,-0.0625,-16.1875,8.1875,-45.25
2021-06-17T15:56:27.481,0.05,-0.4,9.84,0.125,0.0625,0.0,-16.1875,8.1875,-45.25
2021-06-17T15:56:27.494,0.04,-0.39,9.83,0.0,-0.0625,-0.0625,-16.1875,8.1875,-45.25
2021-06-17T15:56:27.506,0.02,-0.4,9.84,0.0,0.0625,0.0,-16.1875,8.1875,-45.25
2021-06-17T15:56:27.519,0.05,-0.42,9.84,0.0625,0.0,0.0625,-16.5,9.6875,-45.5625
2021-06-17T15:56:27.532,0.05,-0.4,9.81,0.0625,-0.0625,-0.0625,-16.5,9.6875,-45.5625
2021-06-17T15:56:27.545,0.07,-0.4,9.83,0.0,-0.125,-0.125,-16.5,9.6875,-45.5625
2021-06-17T15:56:27.558,0.05,-0.38,9.85,0.0,0.0,0.0625,-16.5,9.6875,-45.5625
2021-06-17T15:56:27.571,0.05,-0.39,9.86,0.0625,-0.25,0.125,-17.25,8.875,-45.5625
2021-06-17T15:56:27.583,0.06,-0.4,9.83,0.0625,-0.0625,-0.0625,-17.25,8.875,-45.5625
2021-06-17T15:56:27.596,0.05,-0.41,9.84,-0.0625,0.0,0.0,-17.25,8.875,-45.5625
2021-06-17T15:56:27.609,0.06,-0.41,9.87,-0.125,0.0625,-0.0625,-16.5,8.875,-45.5625
2021-06-17T15:56:27.622,0.06,-0.39,9.85,-0.0625,0.1875,-0.125,-16.5,8.875,-45.5625
2021-06-17T15:56:27.645,0.04,-0.4,9.82,0.0,0.0,-0.0625,-16.5,8.875,-45.5625
2021-06-17T15:56:27.663,0.06,-0.41,9.85,0.1875,0.0,-0.0625,-16.875,8.5,-44.75
2021-06-17T15:56:27.676,0.06,-0.4,9.82,0.0,-0.0625,-0.0625,-16.875,8.5,-44.75
2021-06-17T15:56:27.689,0.03,-0.4,9.83,-0.125,0.0,-0.0625,-16.875,8.5,-44.75
2021-06-17T15:56:27.702,0.03,-0.38,9.87,0.0,0.0,-0.125,-16.875,8.5,-44.75
2021-06-17T15:56:27.715,0.06,-0.41,9.84,0.0625,0.0625,0.0,-16.875,8.5,-45.1875
2021-06-17T15:56:27.728,0.05,-0.4,9.86,0.125,-0.25,-0.0625,-16.875,8.5,-45.1875
2021-06-17T15:56:27.74,0.07,-0.39,9.82,0.0625,-0.0625,-0.0625,-16.875,8.5,-45.1875
2021-06-17T15:56:27.753,0.04,-0.42,9.84,0.0625,0.0,-0.0625,-16.875,8.5,-45.1875
2021-06-17T15:56:27.766,0.04,-0.4,9.84,0.0,0.125,-0.0625,-16.1875,8.875,-45.5625
2021-06-17T15:56:27.78,0.07,-0.42,9.83,0.0625,0.0625,0.0,-16.1875,8.875,-45.5625
2021-06-17T15:56:27.793,0.04,-0.38,9.79,0.0625,-0.0625,0.0625,-16.1875,8.875,-45.5625
2021-06-17T15:56:27.806,0.05,-0.38,9.84,0.125,-0.125,0.0625,-16.1875,8.875,-45.5625
2021-06-17T15:56:27.818,0.05,-0.38,9.84,0.0,-0.125,0.0625,-16.875,8.1875,-46.0625
2021-06-17T15:56:27.831,0.05,-0.4,9.86,0.125,-0.0625,0.0,-16.875,8.1875,-46.0625
2021-06-17T15:56:27.844,0.07,-0.4,9.87,0.0,0.0625,0.0625,-16.875,8.1875,-46.0625
2021-06-17T15:56:27.857,0.05,-0.4,9.86,0.0,-0.0625,0.0,-16.875,8.1875,-46.0625
2021-06-17T15:56:27.877,0.05,-0.39,9.85,0.0625,-0.125,0.0625,-16.5,8.5,-45.5625
2021-06-17T15:56:27.891,0.06,-0.43,9.82,-0.0625,-0.0625,0.0,-16.5,8.5,-45.5625
2021-06-17T15:56:27.904,0.05,-0.4,9.84,0.0625,-0.125,0.0,-16.5,8.5,-45.5625
2021-06-17T15:56:27.917,0.04,-0.4,9.85,0.0,-0.3125,0.0,-17.25,8.5,-45.1875
2021-06-17T15:56:27.93,0.03,-0.4,9.83,0.125,-0.0625,0.0,-17.25,8.5,-45.1875
2021-06-17T15:56:27.943,0.07,-0.4,9.85,0.0625,0.0,-0.0625,-17.25,8.5,-45.1875
2021-06-17T15:56:27.955,0.06,-0.4,9.82,-0.125,0.0,0.125,-17.25,8.5,-45.1875
2021-06-17T15:56:27.968,0.04,-0.4,9.83,0.1875,0.0625,0.0625,-16.875,8.875,-45.5625
2021-06-17T15:56:27.981,0.06,-0.4,9.82,-0.0625,-0.0625,0.0625,-16.875,8.875,-45.5625
2021-06-17T15:56:27.994,0.06,-0.39,9.84,0.0625,-0.125,0.0,-16.875,8.875,-45.5625
2021-06-17T15:56:28.007,0.05,-0.38,9.86,0.0625,-0.0625,0.125,-16.875,8.875,-45.5625
2021-06-17T15:56:28.02,0.05,-0.41,9.84,0.125,0.0,-0.0625,-16.1875,10.0,-44.75
2021-06-17T15:56:28.033,0.06,-0.41,9.79,0.0,0.0625,0.0625,-16.1875,10.0,-44.75
2021-06-17T15:56:28.045,0.05,-0.43,9.84,0.125,0.0,0.0,-16.1875,10.0,-44.75
2021-06-17T15:56:28.058,0.05,-0.39,9.83,0.0625,0.0,0.0625,-16.1875,10.0,-44.75
2021-06-17T15:56:28.071,0.03,-0.39,9.85,0.0,-0.0625,-0.0625,-16.875,9.25,-46.0
2021-06-17T15:56:28.084,0.06,-0.42,9.81,0.125,0.0,0.0625,-16.875,9.25,-46.0
2021-06-17T15:56:28.107,0.06,-0.39,9.83,-0.0625,0.0625,0.0625,-16.875,8.5,-45.25
2021-06-17T15:56:28.125,0.06,-0.41,9.85,0.0,0.25,-0.125,-16.875,8.5,-45.25
2021-06-17T15:56:28.138,0.06,-0.4,9.81,0.0625,0.0,0.0,-16.875,8.5,-45.25
2021-06-17T15:56:28.151,0.06,-0.41,9.86,0.0,-0.1875,0.0,-16.875,8.5,-45.25
2021-06-17T15:56:28.164,0.05,-0.39,9.85,0.0,0.125,-0.0625,-16.875,8.875,-45.25
2021-06-17T15:56:28.176,0.05,-0.38,9.85,-0.125,-0.0625,0.0625,-16.875,8.875,-45.25
2021-06-17T15:56:28.189,0.06,-0.41,9.82,0.0,0.0625,0.0625,-16.875,8.875,-45.25
2021-06-17T15:56:28.202,-0.01,-0.01,-0.01,0.0,-0.0625,-0.0625,0.0,-0.125,0.0625
2021-06-17T15:56:28.215,0.05,-0.4,9.85,0.125,-0.1875,0.0625,-16.875,8.875,-45.25
2021-06-17T15:56:28.228,0.06,-0.41,9.82,0.0625,0.0,0.0,-16.875,8.875,-45.25
2021-06-17T15:56:28.241,0.05,-0.39,9.81,-0.1875,0.0,0.0,-16.875,8.875,-45.25
2021-06-17T15:56:28.254,0.03,-0.39,9.82,0.0,0.125,0.0,-16.875,8.875,-45.25
2021-06-17T15:56:28.267,0.05,-0.41,9.84,0.0,0.1875,-0.125,-16.1875,8.5,-45.5625
2021-06-17T15:56:28.28,0.05,-0.41,9.81,0.0625,-0.0625,-0.125,-16.1875,8.5,-45.5625
2021-06-17T15:56:28.293,0.06,-0.41,9.83,0.0,0.125,-0.125,-16.1875,8.5,-45.5625
2021-06-17T15:56:28.305,0.05,-0.41,9.86,0.0625,0.0625,0.0,-16.1875,8.5,-45.5625
2021-06-17T15:56:28.318,0.07,-0.39,9.83,0.0,-0.0625,0.125,-16.5,9.6875,-45.25
2021-06-17T15:56:28.352,0.04,-0.4,9.84,-0.0625,-0.0625,0.125,-16.5,9.6875,-45.25
2021-06-17T15:56:28.366,0.05,-0.41,9.85,0.125,-0.0625,-0.1875,-16.875,9.25,-46.0625
2021-06-17T15:56:28.379,0.04,-0.42,9.88,0.125,0.0,0.0625,-16.875,9.25,-46.0625
2021-06-17T15:56:28.391,0.05,-0.39,9.83,0.125,0.0,0.125,-16.875,9.25,-46.0625
2021-06-17T15:56:28.404,0.07,-0.39,9.82,-0.0625,0.0,0.0625,-16.875,9.25,-46.0625
2021-06-17T15:56:28.417,0.04,-0.41,9.82,0.0625,-0.0625,0.125,-16.1875,8.5,-45.5625
2021-06-17T15:56:28.43,0.05,-0.42,9.83,0.0,-0.0625,0.0625,-16.1875,8.5,-45.5625
2021-06-17T15:56:28.443,0.06,-0.41,9.84,0.0625,0.0,0.0,-16.1875,8.5,-45.5625
2021-06-17T15:56:28.456,0.06,-0.4,9.83,0.0625,-0.0625,0.125,-16.1875,8.5,-45.5625
2021-06-17T15:56:28.469,0.05,-0.38,9.84,0.125,-0.0625,-0.0625,-16.1875,8.5,-45.25
2021-06-17T15:56:28.481,0.06,-0.4,9.8,0.0625,-0.0625,0.0625,-16.1875,8.5,-45.25
2021-06-17T15:56:28.494,0.06,-0.4,9.82,0.0,-0.0625,0.125,-16.1875,8.5,-45.25
2021-06-17T15:56:28.507,0.05,-0.4,9.85,0.125,-0.0625,-0.0625,-16.1875,8.5,-45.25
2021-06-17T15:56:28.52,0.03,-0.39,9.85,0.0625,0.0,0.0,-16.1875,8.5,-45.5625
2021-06-17T15:56:28.533,0.06,-0.41,9.84,0.0,0.0,0.125,-16.1875,8.5,-45.5625
2021-06-17T15:56:28.545,0.05,-0.41,9.83,0.0,-0.0625,0.0625,-16.1875,8.5,-45.5625
2021-06-17T15:56:28.558,0.06,-0.4,9.85,0.0625,0.0,0.0625,-16.1875,8.5,-45.5625
2021-06-17T15:56:28.582,0.04,-0.41,9.82,0.0625,-0.125,0.1875,-15.75,8.875,-45.5625
2021-06-17T15:56:28.599,0.04,-0.41,9.82,0.0,0.125,0.0,-15.75,8.875,-45.5625
2021-06-17T15:56:28.612,0.03,-0.39,9.85,-0.0625,0.0625,0.0625,-15.75,8.875,-45.5625
2021-06-17T15:56:28.625,0.04,-0.41,9.83,0.0625,0.0,0.0625,-16.1875,8.875,-44.75
2021-06-17T15:56:28.638,0.04,-0.41,9.81,0.0625,-0.125,0.0625,-16.1875,8.875,-44.75
2021-06-17T15:56:28.651,0.05,-0.38,9.85,-0.0625,0.0,0.125,-16.1875,8.875,-44.75
2021-06-17T15:56:28.664,0.05,-0.42,9.85,0.0625,-0.0625,0.0625,-16.1875,8.875,-44.75
2021-06-17T15:56:28.677,0.06,-0.4,9.84,0.0625,0.0625,0.0,-16.1875,10.0,-45.25
2021-06-17T15:56:28.689,0.05,-0.41,9.83,0.1875,-0.0625,0.125,-16.1875,10.0,-45.25
2021-06-17T15:56:28.702,0.05,-0.42,9.83,0.0,0.0,0.0625,-16.1875,10.0,-45.25
2021-06-17T15:56:28.716,0.02,-0.39,9.85,-0.0625,0.125,-0.0625,-16.1875,8.875,-45.5625
2021-06-17T15:56:28.729,0.04,-0.38,9.85,-0.0625,0.1875,0.0,-16.1875,8.875,-45.5625
2021-06-17T15:56:28.742,0.06,-0.41,9.83,-0.0625,0.0,0.0625,-16.1875,8.875,-45.5625
2021-06-17T15:56:28.754,0.05,-0.4,9.84,0.0625,-0.125,0.0625,-16.1875,8.875,-45.5625
2021-06-17T15:56:28.767,0.02,-0.41,9.84,0.0625,-0.0625,0.0625,-16.1875,7.75,-45.5625
2021-06-17T15:56:28.78,0.04,-0.41,9.86,0.0625,-0.0625,-0.0625,-16.1875,7.75,-45.5625
2021-06-17T15:56:28.793,0.04,-0.39,9.82,0.0625,0.125,-0.0625,-16.1875,7.75,-45.5625
2021-06-17T15:56:28.814,0.04,-0.41,9.83,0.0625,-0.0625,-0.0625,-16.1875,9.6875,-45.5625
2021-06-17T15:56:28.828,0.04,-0.41,9.84,0.0,-0.0625,0.0,-16.1875,9.6875,-45.5625
2021-06-17T15:56:28.841,0.05,-0.39,9.81,0.0625,0.0625,0.0625,-16.1875,9.6875,-45.5625
2021-06-17T15:56:28.853,0.05,-0.4,9.86,0.0625,0.0,-0.0625,-16.1875,9.6875,-45.5625
2021-06-17T15:56:28.866,0.06,-0.4,9.83,0.0,0.0625,-0.0625,-16.875,8.875,-44.75
2021-06-17T15:56:28.879,0.07,-0.41,9.84,0.0625,0.0,0.0625,-16.875,8.875,-44.75
2021-06-17T15:56:28.892,0.05,-0.4,9.83,0.0625,0.0625,0.0625,-16.875,8.875,-44.75
2021-06-17T15:56:28.905,0.05,-0.39,9.85,0.0625,0.125,0.0,-16.875,8.875,-44.75
2021-06-17T15:56:28.917,0.05,-0.4,9.86,0.0,0.0,-0.0625,-16.5,9.6875,-46.0
2021-06-17T15:56:28.93,0.04,-0.39,9.85,0.0625,0.0625,-0.0625,-16.5,9.6875,-46.0
2021-06-17T15:56:28.943,0.07,-0.4,9.86,0.125,0.125,-0.0625,-16.5,9.6875,-46.0
2021-06-17T15:56:28.956,0.04,-0.4,9.85,0.0625,-0.1875,-0.0625,-16.5,9.6875,-46.0
2021-06-17T15:56:28.969,0.07,-0.41,9.83,0.0,0.0625,-0.125,-16.875,8.875,-45.25
2021-06-17T15:56:28.982,0.04,-0.41,9.8,-0.125,0.0,0.0,-16.875,8.875,-45.25
2021-06-17T15:56:28.995,0.05,-0.4,9.83,0.0,0.0,0.0,-16.875,8.875,-45.25
2021-06-17T15:56:29.007,0.04,-0.39,9.86,-0.0625,0.0625,-0.125,-16.875,8.875,-45.25
2021-06-17T15:56:29.02,0.06,-0.38,9.83,0.0,0.125,0.125,-16.875,8.875,-45.25
2021-06-17T15:56:29.044,0.05,-0.42,9.83,0.0625,-0.0625,0.0,-16.875,8.875,-45.25
2021-06-17T15:56:29.062,0.05,-0.39,9.83,0.0625,-0.0625,0.0625,-16.875,8.875,-45.25
2021-06-17T15:56:29.074,0.04,-0.42,9.85,0.1875,-0.0625,0.0,-16.1875,9.6875,-45.5625
2021-06-17T15:56:29.087,0.04,-0.4,9.81,0.0,0.125,-0.0625,-16.1875,9.6875,-45.5625
2021-06-17T15:56:29.1,0.05,-0.39,9.82,0.0625,0.0,-0.0625,-16.1875,9.6875,-45.5625
2021-06-17T15:56:29.113,0.05,-0.38,9.85,0.0,0.0,0.0,-16.1875,9.6875,-45.5625
2021-06-17T15:56:29.126,0.05,-0.39,9.83,0.0625,0.0,-0.125,-16.1875,8.875,-46.75
2021-06-17T15:56:29.139,0.06,-0.38,9.83,0.0625,0.0625,-0.0625,-16.1875,8.875,-46.75
2021-06-17T15:56:29.151,0.06,-0.4,9.85,0.125,-0.0625,-0.0625,-16.1875,8.875,-46.75
2021-06-17T15:56:29.164,0.05,-0.41,9.83,-0.0625,-0.1875,0.125,-16.1875,8.875,-46.75
2021-06-17T15:56:29.177,0.03,-0.41,9.81,-0.0625,-0.0625,-0.0625,-16.875,8.5,-45.25
2021-06-17T15:56:29.19,0.07,-0.42,9.8,0.0625,0.0625,-0.0625,-16.875,8.5,-45.25
2021-06-17T15:56:29.203,0.04,-0.38,9.83,-0.0625,0.0,0.0,-16.875,8.5,-45.25
2021-06-17T15:56:29.216,0.04,-0.39,9.83,0.0,-0.0625,-0.0625,-17.25,8.875,-44.75
2021-06-17T15:56:29.229,0.05,-0.4,9.84,0.0625,0.0,-0.0625,-17.25,8.875,-44.75
2021-06-17T15:56:29.241,0.04,-0.4,9.82,-0.125,0.0625,-0.0625,-17.25,8.875,-44.75
2021-06-17T15:56:29.254,0.06,-0.41,9.85,0.0,0.0,-0.1875,-17.25,8.875,-44.75
2021-06-17T15:56:29.288,0.05,-0.41,9.83,-0.125,-0.0625,-0.0625,-16.1875,9.6875,-45.5625
2021-06-17T15:56:29.302,0.04,-0.4,9.82,0.0,-0.0625,0.0,-16.1875,9.6875,-45.5625
2021-06-17T15:56:29.315,0.05,-0.39,9.82,0.0,0.0,-0.0625,-16.1875,9.6875,-44.75
2021-06-17T15:56:29.328,0.05,-0.4,9.83,0.0,0.0,0.0625,-16.1875,9.6875,-44.75
2021-06-17T15:56:29.34,0.07,-0.39,9.83,0.0,0.0625,0.0625,-16.1875,9.6875,-44.75
2021-06-17T15:56:29.353,0.05,-0.4,9.83,-0.0625,0.0,0.0625,-16.1875,9.6875,-44.75
2021-06-17T15:56:29.366,0.05,-0.41,9.86,-0.0625,-0.0625,0.125,-16.875,8.5,-44.75
2021-06-17T15:56:29.379,0.04,-0.4,9.83,0.0,0.125,0.0625,-16.875,8.5,-44.75
2021-06-17T15:56:29.392,0.04,-0.42,9.81,-0.125,0.0,0.125,-16.875,8.5,-44.75
2021-06-17T15:56:29.404,0.06,-0.4,9.87,0.0,0.0,0.0,-16.875,8.5,-44.75
2021-06-17T15:56:29.418,0.07,-0.39,9.83,0.0,0.0625,0.0,-16.1875,8.1875,-45.5625
2021-06-17T15:56:29.431,0.06,-0.4,9.83,-0.0625,0.0,0.0625,-16.1875,8.1875,-45.5625
2021-06-17T15:56:29.444,0.03,-0.4,9.85,-0.0625,0.0,0.0625,-16.1875,8.1875,-45.5625
2021-06-17T15:56:29.457,0.03,-0.42,9.84,-0.125,0.0,0.125,-16.1875,8.1875,-45.5625
2021-06-17T15:56:29.47,0.05,-0.41,9.87,-0.125,0.0625,0.0,-16.875,8.5,-46.375
2021-06-17T15:56:29.482,0.04,-0.41,9.84,-0.0625,0.0,0.0625,-16.875,8.5,-46.375
2021-06-17T15:56:29.495,0.06,-0.4,9.83,0.0,0.0625,0.0,-16.875,8.5,-46.375
2021-06-17T15:56:29.519,0.05,-0.39,9.84,-0.0625,0.0,-0.0625,-16.5,9.25,-45.25
2021-06-17T15:56:29.533,0.04,-0.4,9.84,-0.125,0.125,-0.0625,-16.5,9.25,-45.25
2021-06-17T15:56:29.545,0.05,-0.39,9.82,-0.0625,0.0625,0.0,-16.5,9.25,-45.25
2021-06-17T15:56:29.558,0.06,-0.41,9.83,-0.125,0.0,0.125,-16.5,9.25,-45.25
2021-06-17T15:56:29.571,0.04,-0.39,9.85,-0.0625,0.0,0.0625,-16.5,8.5,-46.0
2021-06-17T15:56:29.584,0.05,-0.4,9.83,0.0625,0.0625,0.0,-16.5,8.5,-46.0
2021-06-17T15:56:29.597,0.05,-0.42,9.81,-0.0625,0.0,-0.0625,-16.5,8.5,-46.0
2021-06-17T15:56:29.61,0.05,-0.41,9.83,-0.125,-0.125,0.1875,-16.5,8.5,-46.0
2021-06-17T15:56:29.622,0.05,-0.38,9.85,-0.0625,0.0,0.1875,-16.1875,9.25,-45.5625
2021-06-17T15:56:29.635,0.04,-0.4,9.82,-0.125,0.0625,0.0625,-16.1875,9.25,-45.5625
2021-06-17T15:56:29.648,0.04,-0.4,9.85,-0.125,-0.125,0.0625,-16.1875,9.25,-45.5625
2021-06-17T15:56:29.661,0.04,-0.4,9.82,0.0,-0.0625,0.0,-16.1875,9.25,-45.5625
2021-06-17T15:56:29.674,0.04,-0.41,9.83,0.0625,-0.0625,-0.0625,-16.875,9.6875,-45.5625
2021-06-17T15:56:29.687,0.06,-0.39,9.82,-0.0625,-0.125,-0.125,-16.875,9.6875,-45.5625
2021-06-17T15:56:29.7,0.06,-0.39,9.84,0.0625,0.1875,0.0625,-16.875,9.6875,-45.5625
2021-06-17T15:56:29.712,0.04,-0.4,9.84,-0.0625,0.0625,0.0,-16.875,9.6875,-45.5625
2021-06-17T15:56:29.725,0.05,-0.4,9.83,-0.125,0.0625,0.0625,-16.1875,9.6875,-46.375
2021-06-17T15:56:29.749,0.06,-0.4,9.81,-0.25,0.0625,0.0,-16.1875,9.6875,-46.375
2021-06-17T15:56:29.767,0.05,-0.39,9.81,0.0625,0.0,0.1875,-16.1875,9.6875,-46.375
2021-06-17T15:56:29.78,0.05,-0.41,9.86,0.0625,0.0,0.0,-16.875,8.875,-46.0625
2021-06-17T15:56:29.793,0.04,-0.39,9.81,0.0,0.0625,0.0,-16.875,8.875,-46.0625
2021-06-17T15:56:29.806,0.07,-0.39,9.84,0.0625,-0.0625,0.125,-16.875,8.875,-46.0625
2021-06-17T15:56:29.819,0.05,-0.42,9.86,-0.125,-0.0625,0.0,-16.875,8.5,-46.375
2021-06-17T15:56:29.831,0.06,-0.4,9.84,-0.0625,0.0,0.0625,-16.875,8.5,-46.375
2021-06-17T15:56:29.844,0.05,-0.41,9.8,-0.125,0.0,0.0625,-16.875,8.5,-46.375
2021-06-17T15:56:29.857,0.05,-0.41,9.84,0.0,-0.0625,0.0625,-16.875,8.5,-46.375
2021-06-17T15:56:29.87,0.04,-0.4,9.87,0.0,0.125,0.0,-16.875,8.875,-45.25
2021-06-17T15:56:29.884,0.06,-0.4,9.86,0.0,0.0,0.0625,-16.875,8.875,-45.25
2021-06-17T15:56:29.896,0.04,-0.41,9.83,0.0625,-0.0625,0.1875,-16.875,8.875,-45.25
2021-06-17T15:56:29.909,0.04,-0.4,9.86,0.125,-0.1875,0.125,-16.875,8.875,-45.25
2021-06-17T15:56:29.922,0.06,-0.4,9.86,0.0,0.0625,0.0625,-16.875,8.875,-44.375
2021-06-17T15:56:29.935,0.07,-0.41,9.84,-0.0625,-0.0625,0.0,-16.875,8.875,-44.375
2021-06-17T15:56:29.948,0.06,-0.41,9.8,-0.0625,0.0,0.125,-16.875,8.875,-44.375
2021-06-17T15:56:29.96,0.06,-0.41,9.84,0.0625,0.0625,0.0,-16.875,8.875,-44.375
2021-06-17T15:56:29.981,0.04,-0.4,9.83,0.0625,0.0625,0.0625,-15.375,9.25,-44.75
2021-06-17T15:56:29.995,0.04,-0.4,9.86,-0.125,-0.125,-0.0625,-15.375,9.25,-44.75
2021-06-17T15:56:30.008,0.06,-0.4,9.85,0.125,-0.125,0.0,-15.375,9.25,-44.75
2021-06-17T15:56:30.021,0.07,-0.4,9.84,0.125,0.0,0.125,-16.1875,8.1875,-45.25
2021-06-17T15:56:30.033,0.05,-0.42,9.84,0.0,-0.0625,0.0625,-16.1875,8.1875,-45.25
2021-06-17T15:56:30.046,0.05,-0.41,9.85,0.0625,0.0,0.0,-16.1875,8.1875,-45.25
2021-06-17T15:56:30.059,0.03,-0.39,9.83,0.125,0.0625,0.1875,-16.1875,8.1875,-45.25
2021-06-17T15:56:30.072,0.06,-0.41,9.85,0.0,0.0,0.0625,-16.875,8.5,-46.375
2021-06-17T15:56:30.085,0.04,-0.4,9.82,-0.0625,-0.125,0.0,-16.875,8.5,-46.375
2021-06-17T15:56:30.098,0.06,-0.4,9.84,0.0,-0.0625,0.0,-16.875,8.5,-46.375
2021-06-17T15:56:30.111,0.06,-0.38,9.83,0.0,0.0625,-0.0625,-16.875,8.5,-46.375
2021-06-17T15:56:30.123,0.06,-0.41,9.84,0.0,0.125,-0.125,-16.875,9.25,-46.0
2021-06-17T15:56:30.136,0.06,-0.41,9.81,0.0625,0.0,0.125,-16.875,9.25,-46.0
2021-06-17T15:56:30.149,0.07,-0.39,9.84,0.0,-0.125,0.125,-16.875,9.25,-46.0
2021-06-17T15:56:30.162,0.06,-0.4,9.84,0.125,-0.1875,0.0625,-16.875,9.25,-46.0
2021-06-17T15:56:30.175,0.06,-0.41,9.83,-0.0625,0.0625,0.0625,-16.1875,9.6875,-45.25
2021-06-17T15:56:30.188,0.03,-0.41,9.82,0.0,-0.0625,0.0625,-16.1875,9.6875,-45.25
2021-06-17T15:56:30.211,0.07,-0.41,9.85,-0.0625,0.0625,-0.125,-16.1875,9.6875,-45.25
2021-06-17T15:56:30.229,0.04,-0.4,9.83,0.125,0.0,0.125,-16.5,9.25,-46.0625
2021-06-17T15:56:30.242,0.07,-0.42,9.81,0.0,0.125,0.0,-16.5,9.25,-46.0625
2021-06-17T15:56:30.254,0.06,-0.42,9.82,-0.0625,-0.0625,0.0,-16.5,9.25,-46.0625
2021-06-17T15:56:30.267,0.06,-0.41,9.84,0.0625,0.0,0.0,-16.5,9.25,-46.0625
2021-06-17T15:56:30.28,0.06,-0.4,9.85,0.0,0.0625,-0.0625,-16.5,8.875,-46.0
2021-06-17T15:56:30.293,0.06,-0.39,9.83,0.0,-0.125,0.0,-16.5,8.875,-46.0
2021-06-17T15:56:30.306,0.06,-0.39,9.84,0.0,-0.0625,0.0,-16.5,8.875,-46.0
2021-06-17T15:56:30.319,0.04,-0.4,9.84,0.0,0.0,0.0,-16.1875,10.0,-45.25
2021-06-17T15:56:30.331,0.04,-0.38,9.83,0.0625,0.0,0.0625,-16.1875,10.0,-45.25
2021-06-17T15:56:30.345,0.06,-0.38,9.82,0.0,0.0625,0.0,-16.1875,10.0,-45.25
2021-06-17T15:56:30.358,0.06,-0.38,9.82,0.125,0.125,0.0625,-16.1875,10.0,-45.25
2021-06-17T15:56:30.371,0.07,-0.38,9.84,0.0,0.0,0.0625,-16.1875,8.875,-45.1875
2021-06-17T15:56:30.384,0.06,-0.4,9.85,0.0,0.0625,0.0,-16.1875,8.875,-45.1875
2021-06-17T15:56:30.396,0.05,-0.38,9.81,0.0,-0.0625,0.0625,-16.1875,8.875,-45.1875
2021-06-17T15:56:30.409,0.06,-0.4,9.84,-0.0625,-0.125,0.0625,-16.1875,8.875,-45.1875
2021-06-17T15:56:30.422,0.05,-0.42,9.85,0.0625,-0.0625,0.0,-16.5,8.875,-45.5625
2021-06-17T15:56:30.435,0.05,-0.41,9.87,0.125,0.0,-0.0625,-16.5,8.875,-45.5625
2021-06-17T15:56:30.455,0.06,-0.4,9.83,0.0625,-0.0625,0.0,-16.5,8.875,-45.5625
2021-06-17T15:56:30.469,0.06,-0.39,9.83,-0.1875,-0.0625,0.125,-16.5,9.25,-46.375
2021-06-17T15:56:30.482,0.03,-0.41,9.88,-0.0625,-0.0625,0.0625,-16.5,9.25,-46.375
2021-06-17T15:56:30.495,0.05,-0.39,9.79,0.0,0.125,-0.0625,-16.5,9.25,-46.375
2021-06-17T15:56:30.508,0.05,-0.39,9.83,0.0,-0.0625,0.0,-16.5,9.25,-46.375
2021-06-17T15:56:30.521,0.05,-0.4,9.84,0.0625,0.0,0.0,-16.5,9.25,-45.5625
2021-06-17T15:56:30.533,0.05,-0.39,9.86,0.125,0.0625,0.125,-16.5,9.25,-45.5625
2021-06-17T15:56:30.546,0.05,-0.41,9.84,0.0,-0.125,0.0625,-16.5,9.25,-45.5625
2021-06-17T15:56:30.559,0.06,-0.4,9.82,0.0,-0.1875,0.0,-16.5,9.25,-45.5625
2021-06-17T15:56:30.572,0.07,-0.4,9.85,0.125,-0.0625,0.0625,-16.875,9.6875,-45.25
2021-06-17T15:56:30.585,0.06,-0.41,9.84,0.0,0.0,0.0625,-16.875,9.6875,-45.25
2021-06-17T15:56:30.598,0.05,-0.4,9.85,0.0,0.0,-0.0625,-16.875,9.6875,-45.25
2021-06-17T15:56:30.61,0.05,-0.42,9.87,0.0,-0.125,-0.0625,-16.875,9.6875,-45.25
2021-06-17T15:56:30.623,0.04,-0.42,9.81,0.0,-0.3125,0.125,-16.5,9.6875,-45.5625
2021-06-17T15:56:30.636,0.04,-0.4,9.84,0.0,-0.3125,0.125,-16.5,9.6875,-45.5625
2021-06-17T15:56:30.649,0.04,-0.42,9.85,0.0625,0.0,0.0625,-16.5,9.6875,-45.5625
2021-06-17T15:56:30.662,0.05,-0.4,9.83,0.0625,-0.125,0.0625,-16.5,9.6875,-45.5625
2021-06-17T15:56:30.685,0.04,-0.4,9.82,0.0,-0.125,0.0625,-16.875,8.875,-45.5625
2021-06-17T15:56:30.703,0.05,-0.39,9.83,0.125,-0.0625,-0.0625,-16.875,8.875,-45.5625
2021-06-17T15:56:30.716,0.04,-0.4,9.83,-0.0625,0.0,0.0625,-16.875,8.875,-45.5625
2021-06-17T15:56:30.729,0.05,-0.41,9.84,0.0,0.0625,0.0625,-15.75,10.0,-45.25
2021-06-17T15:56:30.742,0.06,-0.41,9.82,0.0,0.1875,0.125,-15.75,10.0,-45.25
2021-06-17T15:56:30.755,0.05,-0.41,9.84,0.0,0.125,0.0,-15.75,10.0,-45.25
2021-06-17T15:56:30.768,0.07,-0.42,9.86,0.0625,-0.125,0.0,-15.75,10.0,-45.25
2021-06-17T15:56:30.78,0.05,-0.41,9.83,0.0625,0.0625,0.0625,-15.75,9.6875,-44.75
2021-06-17T15:56:30.793,0.04,-0.4,9.81,-0.0625,-0.0625,0.0625,-15.75,9.6875,-44.75
2021-06-17T15:56:30.806,0.07,-0.38,9.83,-0.0625,0.125,0.0,-15.75,9.6875,-44.75
2021-06-17T15:56:30.819,0.02,-0.4,9.82,0.0625,0.0625,-0.0625,-15.75,9.6875,-44.75
2021-06-17T15:56:30.832,0.04,-0.38,9.85,0.0,0.0,0.0,-16.5,9.6875,-44.75
2021-06-17T15:56:30.845,0.04,-0.41,9.83,0.0625,0.0625,-0.125,-16.5,9.6875,-44.75
2021-06-17T15:56:30.858,0.04,-0.42,9.85,-0.0625,0.0,-0.0625,-16.5,9.6875,-44.75
2021-06-17T15:56:30.871,0.05,-0.38,9.86,0.0,0.0,0.125,-16.5,9.25,-45.5625
2021-06-17T15:56:30.884,0.05,-0.41,9.82,0.0,0.0,0.0625,-16.5,9.25,-45.5625
2021-06-17T15:56:30.896,0.04,-0.39,9.82,0.0,0.125,-0.0625,-16.5,9.25,-45.5625
2021-06-17T15:56:30.917,0.06,-0.38,9.83,0.0,0.0,0.0,-15.75,9.25,-45.25
2021-06-17T15:56:30.931,0.06,-0.4,9.85,0.125,0.0625,0.0625,-15.75,9.25,-45.25
2021-06-17T15:56:30.944,0.06,-0.38,9.81,0.0,0.0625,-0.125,-15.75,9.25,-45.25
2021-06-17T15:56:30.957,0.07,-0.39,9.84,-0.125,0.125,0.0625,-15.75,9.25,-45.25
2021-06-17T15:56:30.969,0.04,-0.4,9.84,0.0625,0.1875,-0.125,-15.375,9.25,-45.5625
2021-06-17T15:56:30.982,0.06,-0.42,9.86,0.0,0.125,-0.0625,-15.375,9.25,-45.5625
2021-06-17T15:56:30.995,0.06,-0.4,9.8,0.125,0.125,0.0625,-15.375,9.25,-45.5625
2021-06-17T15:56:31.008,0.06,-0.4,9.83,0.125,0.0,-0.0625,-15.375,9.25,-45.5625
2021-06-17T15:56:31.021,0.04,-0.4,9.85,-0.0625,0.25,-0.125,-16.5,8.875,-44.75
2021-06-17T15:56:31.034,0.05,-0.41,9.84,-0.0625,0.125,0.0,-16.5,8.875,-44.75
2021-06-17T15:56:31.047,0.04,-0.42,9.83,0.0,0.1875,0.0,-16.5,8.875,-44.75
2021-06-17T15:56:31.059,0.06,-0.4,9.83,0.0625,0.0,0.0,-16.5,8.875,-44.75
2021-06-17T15:56:31.072,0.06,-0.39,9.83,0.0625,0.1875,0.0,-16.875,9.25,-46.0625
2021-06-17T15:56:31.085,0.06,-0.4,9.84,-0.0625,0.1875,-0.125,-16.875,9.25,-46.0625
2021-06-17T15:56:31.098,0.07,-0.38,9.85,0.0,0.0625,0.125,-16.875,9.25,-46.0625
2021-06-17T15:56:31.111,0.06,-0.39,9.82,-0.0625,0.125,-0.0625,-16.875,9.25,-46.0625
2021-06-17T15:56:31.124,0.05,-0.39,9.83,0.0,0.1875,-0.125,-15.75,9.6875,-45.5625
2021-06-17T15:56:31.147,0.05,-0.39,9.84,0.125,0.0,-0.0625,-15.75,9.6875,-45.5625
2021-06-17T15:56:31.165,0.06,-0.39,9.82,0.0625,0.0,-0.0625,-15.75,9.6875,-45.5625
2021-06-17T15:56:31.178,0.07,-0.41,9.85,0.1875,-0.125,0.0625,-16.5,9.6875,-45.5625
2021-06-17T15:56:31.191,0.05,-0.39,9.81,0.0625,0.0,-0.0625,-16.5,9.6875,-45.5625
2021-06-17T15:56:31.204,0.04,-0.4,9.86,-0.0625,0.0,0.0625,-16.5,9.6875,-45.5625
2021-06-17T15:56:31.216,0.06,-0.41,9.84,-0.0625,0.125,-0.0625,-16.5,9.6875,-45.5625
2021-06-17T15:56:31.229,0.04,-0.44,9.82,0.0,0.125,-0.1875,-16.5,9.6875,-45.5625
2021-06-17T15:56:31.242,0.06,-0.4,9.8,0.0625,0.0,0.0,-16.5,9.6875,-45.5625
2021-06-17T15:56:31.255,0.05,-0.4,9.83,0.125,0.0,0.0625,-16.5,9.6875,-45.5625
2021-06-17T15:56:31.268,0.06,-0.41,9.84,0.125,0.125,-0.0625,-16.5,9.6875,-45.5625
2021-06-17T15:56:31.281,0.05,-0.41,9.81,0.0625,0.125,0.0,-16.1875,8.5,-45.5625
2021-06-17T15:56:31.294,0.06,-0.41,9.82,0.0625,-0.1875,0.125,-16.1875,8.5,-45.5625
2021-06-17T15:56:31.307,0.06,-0.39,9.86,-0.125,0.0,0.0625,-16.1875,8.5,-45.5625
2021-06-17T15:56:31.32,0.05,-0.39,9.83,0.0,-0.0625,0.0625,-16.1875,8.5,-45.5625
2021-06-17T15:56:31.333,0.05,-0.41,9.81,-0.0625,0.0,-0.0625,-16.5,9.6875,-45.5625
2021-06-17T15:56:31.345,0.05,-0.41,9.82,-0.0625,0.0,0.125,-16.5,9.6875,-45.5625
2021-06-17T15:56:31.358,0.04,-0.38,9.86,-0.125,0.125,-0.0625,-16.5,9.6875,-45.5625
2021-06-17T15:56:31.371,0.06,-0.4,9.84,0.0,0.0,0.0625,-16.5,9.6875,-45.5625
2021-06-17T15:56:31.392,0.06,-0.41,9.82,0.0,-0.125,-0.0625,-17.25,8.875,-45.5625
2021-06-17T15:56:31.406,0.05,-0.41,9.83,0.0,0.0,0.125,-17.25,8.875,-45.5625
2021-06-17T15:56:31.418,0.06,-0.38,9.84,0.0,0.0,0.0,-16.5,9.25,-46.0625
2021-06-17T15:56:31.431,0.05,-0.41,9.85,0.0625,-0.125,0.0,-16.5,9.25,-46.0625
2021-06-17T15:56:31.444,0.07,-0.41,9.79,0.0,-0.0625,0.0,-16.5,9.25,-46.0625
2021-06-17T15:56:31.457,0.05,-0.39,9.83,-0.125,-0.125,0.0,-16.5,9.25,-46.0625
2021-06-17T15:56:31.47,0.03,-0.4,9.85,-0.1875,-0.0625,0.0625,-16.1875,9.6875,-46.0625
2021-06-17T15:56:31.483,0.04,-0.41,9.83,0.0,0.0625,0.0,-16.1875,9.6875,-46.0625
2021-06-17T15:56:31.495,0.04,-0.4,9.79,-0.0625,-0.125,0.1875,-16.1875,9.6875,-46.0625
2021-06-17T15:56:31.508,0.05,-0.4,9.81,0.0,-0.0625,0.0625,-16.1875,9.6875,-46.0625
2021-06-17T15:56:31.521,0.05,-0.41,9.84,-0.0625,0.0,0.0625,-16.1875,8.875,-44.75
2021-06-17T15:56:31.534,0.06,-0.39,9.85,-0.0625,-0.1875,0.125,-16.1875,8.875,-44.75
2021-06-17T15:56:31.547,0.03,-0.4,9.81,-0.0625,0.0,0.0,-16.1875,8.875,-44.75
2021-06-17T15:56:31.56,0.06,-0.39,9.82,-0.0625,-0.0625,-0.0625,-16.1875,8.875,-44.75
2021-06-17T15:56:31.573,0.06,-0.38,9.82,0.0,-0.0625,0.0,-16.1875,8.875,-46.0625
2021-06-17T15:56:31.585,0.05,-0.41,9.83,0.0,0.0625,-0.0625,-16.1875,8.875,-46.0625
2021-06-17T15:56:31.598,0.04,-0.39,9.81,-0.0625,0.0,0.0625,-16.1875,8.875,-46.0625
2021-06-17T15:56:31.622,0.04,-0.4,9.85,-0.0625,-0.0625,0.0,-16.5,8.875,-44.75
2021-06-17T15:56:31.64,0.04,-0.4,9.84,0.0,-0.0625,0.0,-16.5,8.875,-44.75
2021-06-17T15:56:31.653,0.07,-0.41,9.83,-0.0625,-0.0625,0.0,-16.5,8.875,-44.75
2021-06-17T15:56:31.665,0.07,-0.41,9.84,0.0,0.0625,0.0,-16.5,8.875,-44.75
2021-06-17T15:56:31.678,0.05,-0.43,9.86,-0.125,-0.125,0.0,-16.875,8.5,-45.25
2021-06-17T15:56:31.691,0.07,-0.39,9.86,0.0,0.0,0.1875,-16.875,8.5,-45.25
2021-06-17T15:56:31.704,0.03,-0.41,9.84,-0.0625,0.0,0.0625,-16.875,8.5,-45.25
2021-06-17T15:56:31.717,0.05,-0.4,9.86,-0.0625,0.0,0.0625,-16.875,8.5,-45.25
2021-06-17T15:56:31.729,0.07,-0.41,9.85,-0.125,-0.0625,0.0625,-16.875,9.25,-45.25
2021-06-17T15:56:31.742,0.04,-0.41,9.84,0.0,-0.25,0.125,-16.875,9.25,-45.25
2021-06-17T15:56:31.756,0.06,-0.4,9.87,0.0625,0.1875,0.0,-16.875,9.25,-45.25
2021-06-17T15:56:31.769,0.04,-0.39,9.84,-0.0625,-0.125,-0.0625,-16.875,9.25,-45.25
2021-06-17T15:56:31.782,0.05,-0.41,9.83,0.0,-0.125,-0.0625,-16.1875,8.875,-45.5625
2021-06-17T15:56:31.795,0.04,-0.4,9.82,0.0,0.0,0.0625,-16.1875,8.875,-45.5625
2021-06-17T15:56:31.807,0.04,-0.39,9.84,0.0625,0.0,-0.125,-16.1875,8.875,-45.5625
2021-06-17T15:56:31.82,0.05,-0.39,9.85,0.125,0.0,0.0,-16.1875,8.875,-45.5625
2021-06-17T15:56:31.833,0.04,-0.42,9.85,0.1875,0.0,0.0625,-16.5,9.25,-46.0625
2021-06-17T15:56:31.854,0.05,-0.4,9.83,0.0625,0.0,0.0625,-16.5,9.25,-46.0625
2021-06-17T15:56:31.868,0.06,-0.4,9.84,-0.0625,-0.0625,0.0625,-16.5,9.25,-46.0625
2021-06-17T15:56:31.881,0.05,-0.42,9.81,0.0625,0.0625,0.0,-16.875,9.6875,-46.0
2021-06-17T15:56:31.893,0.07,-0.41,9.8,0.125,0.125,0.0625,-16.875,9.6875,-46.0
2021-06-17T15:56:31.906,0.05,-0.42,9.82,0.0625,0.0,-0.125,-16.875,9.6875,-46.0
2021-06-17T15:56:31.919,0.05,-0.41,9.83,0.0625,-0.0625,0.0625,-16.875,9.6875,-46.0
2021-06-17T15:56:31.932,0.04,-0.41,9.85,0.0625,-0.1875,0.0625,-17.25,9.25,-46.375
2021-06-17T15:56:31.945,0.04,-0.42,9.83,-0.125,-0.1875,0.0625,-17.25,9.25,-46.375
2021-06-17T15:56:31.957,0.05,-0.41,9.84,0.0625,0.0,0.0625,-17.25,9.25,-46.375
2021-06-17T15:56:31.97,0.05,-0.4,9.81,-0.125,0.0,0.125,-17.25,9.25,-46.375
2021-06-17T15:56:31.983,0.04,-0.41,9.85,0.0625,0.125,0.125,-16.5,8.875,-45.25
2021-06-17T15:56:31.996,0.05,-0.42,9.81,0.0,0.0625,0.125,-16.5,8.875,-45.25
2021-06-17T15:56:32.009,0.06,-0.38,9.81,0.0,-0.0625,0.0625,-16.5,8.875,-45.25
2021-06-17T15:56:32.022,0.07,-0.4,9.82,0.0625,0.0,0.0625,-17.25,9.25,-46.0625
2021-06-17T15:56:32.035,0.05,-0.39,9.85,-0.0625,0.125,0.0,-17.25,9.25,-46.0625
2021-06-17T15:56:32.047,0.04,-0.42,9.85,0.125,0.0,-0.0625,-17.25,9.25,-46.0625
2021-06-17T15:56:32.06,0.06,-0.39,9.84,0.0,0.125,0.0,-17.25,9.25,-46.0625
2021-06-17T15:56:32.083,0.04,-0.41,9.82,0.125,0.0,0.0,-15.0,8.875,-45.5625
2021-06-17T15:56:32.102,0.05,-0.41,9.81,0.0625,-0.1875,0.125,-15.0,8.875,-45.5625
2021-06-17T15:56:32.114,0.04,-0.38,9.84,0.0625,-0.0625,0.125,-15.0,8.875,-45.5625
2021-06-17T15:56:32.127,0.06,-0.38,9.88,0.125,-0.0625,0.0625,-16.875,8.875,-46.0625
2021-06-17T15:56:32.14,0.05,-0.42,9.81,-0.0625,-0.125,0.0,-16.875,8.875,-46.0625
2021-06-17T15:56:32.153,0.06,-0.42,9.82,0.0,0.0,0.125,-16.875,8.875,-46.0625
2021-06-17T15:56:32.166,0.03,-0.38,9.85,0.125,-0.25,0.125,-16.875,8.875,-46.0625
2021-06-17T15:56:32.178,0.05,-0.39,9.82,0.0625,-0.125,0.0625,-16.5,9.25,-45.25
2021-06-17T15:56:32.191,0.07,-0.39,9.82,0.0625,-0.0625,0.0625,-16.5,9.25,-45.25
2021-06-17T15:56:32.204,0.04,-0.41,9.82,0.0,0.0625,0.0,-16.5,9.25,-45.25
2021-06-17T15:56:32.218,0.05,-0.39,9.85,0.125,-0.0625,0.0625,-16.5,9.25,-45.25
2021-06-17T15:56:32.23,0.05,-0.41,9.86,0.0,-0.0625,0.125,-16.1875,9.25,-46.0
2021-06-17T15:56:32.243,0.05,-0.4,9.85,0.0625,-0.0625,0.0625,-16.1875,9.25,-46.0
2021-06-17T15:56:32.256,0.05,-0.41,9.84,0.125,0.0,0.0,-16.1875,9.25,-46.0
2021-06-17T15:56:32.269,0.06,-0.41,9.83,0.0,-0.0625,-0.125,-16.1875,9.25,-46.0
2021-06-17T15:56:32.282,0.06,-0.4,9.86,0.125,-0.0625,0.0625,-16.5,9.6875,-45.5625
2021-06-17T15:56:32.295,0.04,-0.39,9.8,-0.125,0.125,0.0625,-16.5,9.6875,-45.5625
2021-06-17T15:56:32.328,0.06,-0.4,9.87,-0.125,0.0625,0.0625,-16.5,8.875,-45.25
2021-06-17T15:56:32.342,0.06,-0.4,9.83,-0.125,-0.0625,-0.0625,-16.5,8.875,-45.25
2021-06-17T15:56:32.355,0.06,-0.39,9.84,0.0625,0.125,-0.0625,-16.5,8.875,-45.25
2021-06-17T15:56:32.368,0.06,-0.4,9.84,0.0,-0.0625,0.0625,-16.5,8.875,-45.25
2021-06-17T15:56:32.381,0.05,-0.39,9.85,0.0,0.125,0.0,-16.875,8.875,-44.375
2021-06-17T15:56:32.393,0.03,-0.42,9.81,0.0,0.125,-0.125,-16.875,8.875,-44.375
2021-06-17T15:56:32.406,0.04,-0.4,9.8,0.125,0.0,0.0,-16.875,8.875,-44.375
2021-06-17T15:56:32.419,0.07,-0.39,9.83,-0.0625,0.0625,0.0,-16.875,8.875,-44.375
2021-06-17T15:56:32.432,0.06,-0.41,9.87,-0.125,0.3125,0.0,-16.5,8.875,-46.75
2021-06-17T15:56:32.445,0.04,-0.4,9.82,0.0,-0.0625,0.0,-16.5,8.875,-46.75
2021-06-17T15:56:32.458,0.05,-0.42,9.84,0.0625,0.125,0.0,-16.5,8.875,-46.75
2021-06-17T15:56:32.47,0.07,-0.41,9.82,0.0,0.1875,-0.125,-16.5,8.875,-46.75
2021-06-17T15:56:32.483,0.04,-0.4,9.83,0.125,0.0625,-0.0625,-17.6875,9.25,-45.5625
2021-06-17T15:56:32.496,0.06,-0.38,9.83,0.0,0.0625,0.0625,-17.6875,9.25,-45.5625
2021-06-17T15:56:32.509,0.04,-0.39,9.84,-0.125,0.0625,-0.125,-17.6875,9.25,-45.5625
2021-06-17T15:56:32.522,0.06,-0.4,9.84,-0.0625,0.0625,0.0,-16.1875,8.875,-46.75
2021-06-17T15:56:32.535,0.06,-0.41,9.85,-0.125,0.0625,0.0,-16.1875,8.875,-46.75
2021-06-17T15:56:32.558,0.03,-0.38,9.85,0.125,0.125,-0.0625,-16.1875,8.875,-46.75
2021-06-17T15:56:32.573,0.05,-0.4,9.86,-0.0625,0.125,-0.125,-16.875,8.875,-46.375
2021-06-17T15:56:32.585,0.03,-0.4,9.83,-0.125,0.0625,0.0,-16.875,8.875,-46.375
2021-06-17T15:56:32.598,0.05,-0.4,9.81,0.0,0.0625,-0.0625,-16.875,8.875,-46.375
2021-06-17T15:56:32.611,0.05,-0.42,9.83,-0.0625,0.125,0.0625,-16.875,8.875,-46.375
2021-06-17T15:56:32.624,0.06,-0.41,9.83,0.0,0.125,0.0,-16.5,9.25,-45.25
2021-06-17T15:56:32.637,0.05,-0.39,9.85,0.0625,0.125,-0.125,-16.5,9.25,-45.25
2021-06-17T15:56:32.65,0.04,-0.41,9.8,0.0,-0.0625,0.0,-16.5,9.25,-45.25
2021-06-17T15:56:32.662,0.06,-0.39,9.86,0.0,-0.125,0.0,-16.5,9.25,-45.25
2021-06-17T15:56:32.675,0.05,-0.4,9.86,-0.0625,0.0625,-0.0625,-16.1875,8.5,-44.375
2021-06-17T15:56:32.688,0.04,-0.41,9.84,-0.125,0.125,-0.125,-16.1875,8.5,-44.375
2021-06-17T15:56:32.701,0.07,-0.4,9.83,0.0,0.0,0.0,-16.1875,8.5,-44.375
2021-06-17T15:56:32.714,0.04,-0.4,9.83,-0.1875,0.125,-0.0625,-16.1875,8.5,-44.375
2021-06-17T15:56:32.727,0.06,-0.4,9.86,-0.0625,0.125,-0.125,-16.5,8.875,-45.25
2021-06-17T15:56:32.739,0.04,-0.41,9.83,0.0625,-0.0625,-0.0625,-16.5,8.875,-45.25
2021-06-17T15:56:32.752,0.05,-0.39,9.82,0.0,0.0,0.0,-16.5,8.875,-45.25
2021-06-17T15:56:32.765,0.05,-0.41,9.84,-0.0625,0.0625,-0.0625,-16.5,8.875,-45.25
2021-06-17T15:56:32.789,0.04,-0.4,9.86,0.0,-0.0625,0.0,-15.375,8.875,-45.5625
2021-06-17T15:56:32.807,0.04,-0.41,9.83,0.125,-0.1875,0.125,-15.375,8.875,-45.5625
2021-06-17T15:56:32.82,0.05,-0.4,9.85,0.0,0.1875,-0.25,-15.375,8.875,-45.5625
2021-06-17T15:56:32.833,0.05,-0.4,9.84,0.0,-0.3125,0.0,-16.5,8.5,-45.5625
2021-06-17T15:56:32.846,0.06,-0.4,9.8,0.0,0.0,0.125,-16.5,8.5,-45.5625
2021-06-17T15:56:32.858,0.05,-0.41,9.83,-0.0625,-0.0625,-0.0625,-16.5,8.5,-45.5625
2021-06-17T15:56:32.871,0.05,-0.39,9.84,0.125,-0.1875,0.125,-16.5,8.5,-45.5625
2021-06-17T15:56:32.884,0.06,-0.4,9.84,0.0,-0.0625,0.125,-16.5,8.875,-45.25
2021-06-17T15:56:32.897,0.06,-0.41,9.82,0.0625,-0.1875,0.125,-16.5,8.875,-45.25
2021-06-17T15:56:32.91,0.05,-0.39,9.84,0.0,0.0,0.0,-16.5,8.875,-45.25
2021-06-17T15:56:32.923,0.05,-0.4,9.83,0.0,-0.1875,0.0625,-16.5,8.875,-45.25
2021-06-17T15:56:32.936,0.06,-0.39,9.82,-0.0625,0.0625,0.0,-16.5,9.25,-45.5625
2021-06-17T15:56:32.949,0.07,-0.42,9.8,0.0625,-0.125,0.125,-16.5,9.25,-45.5625
2021-06-17T15:56:32.962,0.04,-0.41,9.84,0.0,0.0,0.125,-16.5,9.25,-45.5625
2021-06-17T15:56:32.975,0.05,-0.42,9.84,0.0625,0.0,0.0625,-16.5,9.25,-45.5625
2021-06-17T15:56:32.988,0.05,-0.4,9.84,-0.0625,-0.0625,0.125,-16.1875,8.5,-45.5625
2021-06-17T15:56:33.0,0.07,-0.4,9.82,0.0625,-0.125,0.125,-16.1875,8.5,-45.5625
2021-06-17T15:56:33.035,0.04,-0.39,9.84,0.0,0.0625,-0.0625,-16.1875,9.6875,-46.875
2021-06-17T15:56:33.048,0.05,-0.38,9.81,0.0,0.1875,0.0,-16.1875,9.6875,-46.875
2021-06-17T15:56:33.06,0.06,-0.41,9.83,0.0,-0.0625,0.1875,-16.1875,9.6875,-46.875
2021-06-17T15:56:33.073,0.05,-0.4,9.82,0.0625,0.0,0.0,-16.1875,9.6875,-46.875
2021-06-17T15:56:33.086,0.06,-0.41,9.87,0.0625,0.0625,0.0,-16.875,8.875,-46.0625
2021-06-17T15:56:33.099,0.05,-0.41,9.83,0.0625,0.0,-0.125,-16.875,8.875,-46.0625
2021-06-17T15:56:33.112,0.06,-0.4,9.84,0.0625,-0.0625,0.0625,-16.875,8.875,-46.0625
2021-06-17T15:56:33.124,0.07,-0.4,9.84,0.0625,-0.25,0.0625,-16.5,9.25,-46.0625
2021-06-17T15:56:33.137,0.06,-0.39,9.85,0.0,-0.0625,0.0,-16.5,9.25,-46.0625
2021-06-17T15:56:33.15,0.04,-0.41,9.83,0.0625,0.0,0.0,-16.5,9.25,-46.0625
2021-06-17T15:56:33.163,0.05,-0.39,9.82,0.125,0.125,-0.0625,-16.5,9.25,-46.0625
2021-06-17T15:56:33.176,0.07,-0.4,9.86,-0.0625,0.0625,-0.0625,-16.875,9.25,-45.25
2021-06-17T15:56:33.189,0.06,-0.39,9.83,0.0625,0.0625,-0.0625,-16.875,9.25,-45.25
2021-06-17T15:56:33.201,0.06,-0.41,9.84,0.125,0.25,0.0,-16.875,9.25,-45.25
2021-06-17T15:56:33.214,0.05,-0.38,9.85,0.125,-0.125,0.0625,-16.875,9.25,-45.25
2021-06-17T15:56:33.227,0.06,-0.4,9.81,0.0625,-0.0625,0.0,-16.1875,8.5,-45.25
2021-06-17T15:56:33.269,0.06,-0.41,9.85,0.0,0.0,0.0625,-16.1875,8.5,-45.25
2021-06-17T15:56:33.282,0.06,-0.41,9.85,0.1875,-0.0625,0.0625,-17.25,9.25,-45.25
2021-06-17T15:56:33.294,0.05,-0.43,9.84,0.0625,-0.1875,0.125,-17.25,9.25,-45.25
2021-06-17T15:56:33.307,0.05,-0.42,9.84,-0.0625,0.0,-0.0625,-17.25,9.25,-45.25
2021-06-17T15:56:33.32,0.06,-0.4,9.87,-0.0625,0.0,-0.0625,-17.25,9.25,-45.25
2021-06-17T15:56:33.333,0.05,-0.41,9.85,-0.125,0.0,0.125,-16.1875,9.25,-45.25
2021-06-17T15:56:33.346,0.04,-0.39,9.83,0.0625,0.0625,0.0625,-16.1875,9.25,-45.25
2021-06-17T15:56:33.358,0.04,-0.38,9.85,0.0,0.0625,0.0,-16.1875,9.25,-45.25
2021-06-17T15:56:33.371,0.04,-0.39,9.84,0.0625,-0.125,0.0,-16.1875,9.25,-45.25
2021-06-17T15:56:33.385,0.06,-0.41,9.82,0.0625,-0.125,-0.0625,-16.1875,8.875,-45.25
2021-06-17T15:56:33.398,0.06,-0.4,9.83,0.0,0.0625,0.125,-16.1875,8.875,-45.25
2021-06-17T15:56:33.411,0.04,-0.42,9.85,-0.0625,0.0,-0.0625,-16.1875,8.875,-45.25
2021-06-17T15:56:33.423,0.03,-0.4,9.85,0.0,0.0,0.0,-16.1875,8.875,-45.25
2021-06-17T15:56:33.436,0.05,-0.41,9.86,0.0,0.0,0.0,-16.5,8.1875,-45.25
2021-06-17T15:56:33.449,0.07,-0.4,9.79,0.0625,-0.125,-0.0625,-16.5,8.1875,-45.25
2021-06-17T15:56:33.462,0.06,-0.41,9.85,0.0625,-0.0625,0.125,-16.5,8.1875,-45.25
2021-06-17T15:56:33.475,0.05,-0.41,9.85,-0.125,-0.0625,0.0625,-16.5,8.1875,-45.25
2021-06-17T15:56:33.496,0.06,-0.39,9.8,0.0,-0.125,0.125,-16.1875,10.0,-45.5625
2021-06-17T15:56:33.509,0.05,-0.42,9.83,0.0,-0.25,0.125,-16.1875,10.0,-45.5625
2021-06-17T15:56:33.522,0.07,-0.41,9.85,0.0625,-0.0625,0.0,-16.1875,10.0,-45.5625
2021-06-17T15:56:33.535,0.04,-0.41,9.84,-0.0625,-0.125,0.0,-16.875,8.5,-44.75
2021-06-17T15:56:33.548,0.04,-0.4,9.83,0.0,0.0625,0.0625,-16.875,8.5,-44.75
2021-06-17T15:56:33.561,0.07,-0.4,9.81,0.0,-0.1875,0.125,-16.875,8.5,-44.75
2021-06-17T15:56:33.574,0.06,-0.4,9.84,0.125,-0.0625,0.0,-16.875,8.5,-44.75
2021-06-17T15:56:33.586,0.02,-0.39,9.86,0.0,0.0,0.0625,-16.1875,9.25,-45.25
2021-06-17T15:56:33.599,0.04,-0.42,9.81,0.0625,-0.0625,0.0,-16.1875,9.25,-45.25
2021-06-17T15:56:33.612,0.04,-0.41,9.83,-0.0625,0.0,0.0,-16.1875,9.25,-45.25
2021-06-17T15:56:33.625,0.07,-0.39,9.84,0.0,0.0625,0.125,-16.5,9.25,-46.0
2021-06-17T15:56:33.638,0.04,-0.4,9.86,0.0625,-0.0625,0.0,-16.5,9.25,-46.0
2021-06-17T15:56:33.651,0.05,-0.43,9.83,0.0,-0.125,0.0,-16.5,9.25,-46.0
2021-06-17T15:56:33.663,0.06,-0.4,9.84,0.0,-0.0625,0.125,-16.5,9.25,-46.0
2021-06-17T15:56:33.676,0.07,-0.4,9.87,-0.125,0.0625,0.0,-16.5,8.5,-45.25
2021-06-17T15:56:33.689,0.05,-0.4,9.83,0.0,-0.125,0.0,-16.5,8.5,-45.25
2021-06-17T15:56:33.702,0.06,-0.4,9.8,-0.0625,-0.0625,0.0625,-16.5,8.5,-45.25
2021-06-17T15:56:33.725,0.05,-0.38,9.85,-0.0625,-0.0625,0.125,-16.5,9.6875,-45.5625
2021-06-17T15:56:33.743,0.06,-0.41,9.86,-0.0625,0.125,-0.0625,-16.5,9.6875,-45.5625
2021-06-17T15:56:33.756,0.05,-0.4,9.82,-0.0625,0.0625,0.0,-16.5,9.6875,-45.5625
2021-06-17T15:56:33.769,0.05,-0.42,9.83,0.0,0.0625,-0.0625,-16.5,9.6875,-45.5625
2021-06-17T15:56:33.782,0.06,-0.42,9.85,-0.125,0.125,0.125,-16.875,8.875,-45.5625
2021-06-17T15:56:33.795,0.05,-0.38,9.85,-0.0625,0.0625,-0.0625,-16.875,8.875,-45.5625
2021-06-17T15:56:33.807,0.06,-0.38,9.79,-0.125,0.0,0.0,-16.875,8.875,-45.5625
2021-06-17T15:56:33.82,0.06,-0.39,9.83,-0.125,0.125,0.0,-16.875,8.875,-45.5625
2021-06-17T15:56:33.833,0.06,-0.41,9.85,0.0,0.0625,-0.0625,-16.875,8.875,-46.0625
2021-06-17T15:56:33.846,0.05,-0.4,9.83,0.0625,0.0625,0.0,-16.875,8.875,-46.0625
2021-06-17T15:56:33.859,0.05,-0.38,9.85,0.0,0.0625,0.0,-16.875,8.875,-46.0625
2021-06-17T15:56:33.872,0.06,-0.4,9.84,0.0625,-0.125,0.0,-16.875,8.875,-46.0625
2021-06-17T15:56:33.885,0.05,-0.41,9.85,-0.0625,-0.125,0.125,-15.75,8.5,-45.5625
2021-06-17T15:56:33.898,0.04,-0.41,9.86,-0.0625,-0.1875,0.0,-15.75,8.5,-45.5625
2021-06-17T15:56:33.911,0.05,-0.39,9.83,-0.1875,-0.1875,0.0,-15.75,8.5,-45.5625
2021-06-17T15:56:33.924,0.05,-0.39,9.85,0.0625,-0.1875,0.0625,-15.75,8.5,-45.5625
2021-06-17T15:56:33.936,0.06,-0.38,9.84,0.0625,-0.125,-0.0625,-16.875,8.5,-45.25
2021-06-17T15:56:33.957,0.05,-0.38,9.81,-0.0625,0.0,0.125,-16.875,8.5,-45.25
2021-06-17T15:56:33.971,0.05,-0.41,9.82,-0.0625,0.1875,0.0,-16.875,8.5,-45.25
2021-06-17T15:56:33.984,0.05,-0.39,9.87,-0.125,-0.125,0.0625,-16.875,8.1875,-45.5625
2021-06-17T15:56:33.997,0.06,-0.4,9.8,0.0,0.0,0.0,-16.875,8.1875,-45.5625
2021-06-17T15:56:34.009,0.04,-0.39,9.8,-0.0625,0.0,-0.0625,-16.875,8.1875,-45.5625
2021-06-17T15:56:34.022,0.05,-0.42,9.84,0.0625,0.0625,-0.0625,-16.875,8.1875,-45.5625
2021-06-17T15:56:34.035,0.05,-0.41,9.83,-0.0625,0.125,0.0,-16.1875,8.5,-45.25
2021-06-17T15:56:34.048,0.06,-0.4,9.81,-0.1875,0.0,0.1875,-16.1875,8.5,-45.25
2021-06-17T15:56:34.061,0.04,-0.39,9.85,0.125,-0.125,0.0625,-16.1875,8.5,-45.25
2021-06-17T15:56:34.073,0.06,-0.38,9.87,0.0,0.0625,0.0,-16.1875,8.5,-45.25
2021-06-17T15:56:34.086,0.05,-0.4,9.84,-0.125,0.125,-0.0625,-16.5,8.875,-47.25
2021-06-17T15:56:34.099,0.03,-0.41,9.83,0.0,-0.125,0.0,-16.5,8.875,-47.25
2021-06-17T15:56:34.112,0.06,-0.39,9.83,0.0,0.0625,0.0625,-16.5,8.875,-47.25
2021-06-17T15:56:34.125,0.05,-0.37,9.85,0.0625,0.1875,0.0,-16.5,8.875,-47.25
2021-06-17T15:56:34.138,0.05,-0.4,9.83,0.125,-0.0625,-0.0625,-16.1875,9.25,-46.375
2021-06-17T15:56:34.151,0.04,-0.4,9.81,-0.0625,0.125,0.0625,-16.1875,9.25,-46.375
2021-06-17T15:56:34.163,0.04,-0.41,9.83,-0.0625,-0.0625,0.0625,-16.1875,9.25,-46.375
2021-06-17T15:56:34.187,0.05,-0.4,9.84,0.0,-0.0625,0.0625,-17.25,8.875,-46.0625
2021-06-17T15:56:34.205,0.06,-0.4,9.82,0.125,-0.125,0.0,-17.25,8.875,-46.0625
2021-06-17T15:56:34.218,0.04,-0.39,9.82,0.125,-0.125,0.0625,-17.25,8.875,-46.0625
2021-06-17T15:56:34.231,0.05,-0.4,9.84,-0.0625,-0.0625,0.0625,-16.1875,8.5,-44.75
2021-06-17T15:56:34.244,0.06,-0.4,9.82,0.0625,0.0,-0.0625,-16.1875,8.5,-44.75
2021-06-17T15:56:34.256,0.04,-0.4,9.8,0.0,-0.125,0.0625,-16.1875,8.5,-44.75
2021-06-17T15:56:34.269,0.06,-0.39,9.84,-0.0625,0.0625,-0.0625,-16.1875,8.5,-44.75
2021-06-17T15:56:34.282,0.06,-0.39,9.83,-0.0625,0.1875,0.125,-16.5,9.25,-44.75
2021-06-17T15:56:34.295,0.06,-0.41,9.81,0.125,-0.0625,0.0625,-16.5,9.25,-44.75
2021-06-17T15:56:34.308,0.05,-0.39,9.82,-0.125,0.0625,0.0,-16.5,9.25,-44.75
2021-06-17T15:56:34.321,0.04,-0.4,9.83,-0.0625,0.0625,0.0625,-16.5,9.25,-44.75
2021-06-17T15:56:34.334,0.05,-0.42,9.86,0.0625,-0.25,0.0,-16.1875,9.6875,-46.0625
2021-06-17T15:56:34.347,0.07,-0.41,9.83,0.0,-0.125,-0.0625,-16.1875,9.6875,-46.0625
2021-06-17T15:56:34.36,0.07,-0.4,9.83,0.0,0.0625,0.0625,-16.1875,9.6875,-46.0625
2021-06-17T15:56:34.373,0.06,-0.4,9.84,-0.0625,0.0625,0.0625,-16.1875,9.6875,-46.0625
2021-06-17T15:56:34.385,0.05,-0.41,9.84,-0.125,0.125,0.0625,-16.5,8.1875,-45.5625
2021-06-17T15:56:34.398,0.05,-0.4,9.85,0.0,-0.0625,0.0625,-16.5,8.1875,-45.5625
2021-06-17T15:56:34.411,0.04,-0.39,9.83,0.0625,-0.0625,-0.0625,-16.5,8.1875,-45.5625
2021-06-17T15:56:34.432,0.06,-0.41,9.85,-0.125,0.0625,0.0,-16.1875,9.25,-46.0625
2021-06-17T15:56:34.446,0.06,-0.41,9.85,0.0,-0.0625,0.0625,-16.1875,9.25,-46.0625
2021-06-17T15:56:34.458,0.05,-0.4,9.84,-0.0625,-0.0625,0.0,-16.1875,9.25,-46.0625
2021-06-17T15:56:34.471,0.07,-0.4,9.83,-0.125,0.0,0.0625,-16.1875,9.25,-46.0625
2021-06-17T15:56:34.484,0.07,-0.4,9.82,-0.0625,0.1875,0.0,-16.1875,9.25,-44.75
2021-06-17T15:56:34.497,0.02,-0.39,9.84,-0.0625,-0.125,0.0,-16.1875,9.25,-44.75
2021-06-17T15:56:34.51,0.05,-0.39,9.83,0.0,0.0,0.0625,-16.1875,9.25,-44.75
2021-06-17T15:56:34.523,0.05,-0.39,9.8,0.0,-0.125,0.0625,-16.1875,9.25,-44.75
2021-06-17T15:56:34.536,0.06,-0.39,9.83,0.0625,0.0625,-0.0625,-16.5,8.875,-45.5625
2021-06-17T15:56:34.548,0.06,-0.41,9.82,-0.125,-0.125,-0.125,-16.5,8.875,-45.5625
2021-06-17T15:56:34.561,0.06,-0.4,9.83,-0.0625,0.0625,0.0625,-16.5,8.875,-45.5625
2021-06-17T15:56:34.574,0.05,-0.41,9.82,0.0,-0.125,0.0625,-16.5,8.875,-45.5625
2021-06-17T15:56:34.587,0.05,-0.4,9.8,0.0625,-0.125,-0.0625,-16.1875,9.6875,-46.375
2021-06-17T15:56:34.6,0.05,-0.41,9.84,-0.0625,0.0,0.125,-16.1875,9.6875,-46.375
2021-06-17T15:56:34.613,0.03,-0.4,9.84,-0.1875,0.0625,0.0625,-16.1875,9.6875,-46.375
2021-06-17T15:56:34.625,0.06,-0.38,9.84,-0.0625,0.0625,-0.0625,-16.1875,9.6875,-46.375
2021-06-17T15:56:34.638,0.05,-0.39,9.8,-0.0625,0.0,0.0,-16.1875,9.6875,-45.25
2021-06-17T15:56:34.662,0.05,-0.4,9.85,0.0,-0.125,0.0,-16.1875,9.6875,-45.25
2021-06-17T15:56:34.68,0.06,-0.42,9.86,-0.125,-0.0625,0.0625,-16.1875,9.6875,-45.25
2021-06-17T15:56:34.693,0.05,-0.4,9.83,-0.125,-0.125,0.0,-15.75,8.5,-46.0625
2021-06-17T15:56:34.706,0.06,-0.42,9.81,-0.1875,0.125,-0.125,-15.75,8.5,-46.0625
2021-06-17T15:56:34.718,0.05,-0.4,9.84,-0.0625,0.1875,-0.0625,-15.75,8.5,-46.0625
2021-06-17T15:56:34.731,0.03,-0.39,9.86,-0.0625,0.0,0.0,-16.875,9.6875,-45.5625
2021-06-17T15:56:34.744,0.04,-0.39,9.86,0.0,-0.0625,0.0625,-16.875,9.6875,-45.5625
2021-06-17T15:56:34.757,0.06,-0.42,9.8,0.0625,0.125,0.0,-16.875,9.6875,-45.5625
2021-06-17T15:56:34.77,0.07,-0.39,9.82,-0.0625,0.125,-0.0625,-16.875,9.6875,-45.5625
2021-06-17T15:56:34.783,0.07,-0.39,9.85,0.0,0.125,0.0625,-16.1875,8.875,-45.5625
2021-06-17T15:56:34.796,0.05,-0.4,9.84,0.0625,0.0,0.0,-16.1875,8.875,-45.5625
2021-06-17T15:56:34.81,0.05,-0.38,9.82,0.125,0.0625,0.0,-16.1875,8.875,-45.5625
2021-06-17T15:56:34.822,0.05,-0.4,9.82,-0.0625,0.0625,0.0625,-16.1875,8.875,-45.5625
2021-06-17T15:56:34.835,0.05,-0.42,9.84,0.0625,0.0,-0.125,-16.1875,9.25,-45.25
2021-06-17T15:56:34.847,0.03,-0.39,9.86,0.0625,0.125,-0.0625,-16.1875,9.25,-45.25
2021-06-17T15:56:34.86,0.07,-0.42,9.82,0.0,-0.0625,0.0,-16.1875,9.25,-45.25
2021-06-17T15:56:34.873,0.03,-0.38,9.85,0.0625,-0.1875,-0.0625,-16.1875,9.25,-45.25
2021-06-17T15:56:34.894,0.02,-0.4,9.83,0.0625,0.0625,0.0,-15.75,8.875,-45.5625
2021-06-17T15:56:34.907,0.06,-0.4,9.82,0.0625,0.0625,-0.0625,-15.75,8.875,-45.5625
2021-06-17T15:56:34.92,0.04,-0.4,9.85,0.125,0.0625,0.0,-15.75,8.875,-45.5625
2021-06-17T15:56:34.933,0.05,-0.39,9.87,0.0,0.0,0.0625,-16.1875,9.25,-46.0
2021-06-17T15:56:34.946,0.05,-0.41,9.85,-0.0625,0.0,-0.0625,-16.1875,9.25,-46.0
2021-06-17T15:56:34.959,0.04,-0.38,9.81,0.0625,0.0625,0.0,-16.1875,9.25,-46.0
2021-06-17T15:56:34.972,0.05,-0.41,9.82,0.0625,0.0,0.0625,-16.1875,9.25,-46.0
2021-06-17T15:56:34.985,0.05,-0.39,9.86,0.0,0.125,0.0625,-16.5,8.875,-46.0
2021-06-17T15:56:34.997,0.05,-0.38,9.86,-0.125,0.0,0.0,-16.5,8.875,-46.0
2021-06-17T15:56:35.011,0.05,-0.41,9.81,0.0625,-0.0625,0.0,-16.5,8.875,-46.0
2021-06-17T15:56:35.023,0.04,-0.39,9.82,0.0,0.125,0.0,-16.5,8.875,-46.0
2021-06-17T15:56:35.036,0.06,-0.41,9.84,0.0,0.0,0.0625,-15.75,8.875,-45.25
2021-06-17T15:56:35.049,0.05,-0.39,9.8,-0.125,-0.0625,-0.0625,-15.75,8.875,-45.25
2021-06-17T15:56:35.062,0.06,-0.38,9.82,-0.0625,0.125,-0.0625,-15.75,8.875,-45.25
2021-06-17T15:56:35.075,0.06,-0.41,9.81,0.0625,-0.3125,0.0,-15.75,8.875,-45.25
2021-06-17T15:56:35.088,0.06,-0.42,9.84,0.1875,-0.0625,0.0625,-16.5,9.25,-45.25
2021-06-17T15:56:35.1,0.05,-0.42,9.82,0.0,0.0625,0.0,-16.5,9.25,-45.25
2021-06-17T15:56:35.124,0.05,-0.42,9.84,0.0,-0.125,0.0,-16.5,9.25,-45.25
2021-06-17T15:56:35.138,0.07,-0.41,9.83,0.0,0.125,0.0,-15.75,8.875,-44.75
2021-06-17T15:56:35.151,0.04,-0.41,9.82,0.0625,-0.0625,0.0625,-15.75,8.875,-44.75
2021-06-17T15:56:35.164,0.05,-0.41,9.83,0.0625,0.0,-0.0625,-15.75,8.875,-44.75
2021-06-17T15:56:35.176,0.06,-0.4,9.84,0.0,0.0,-0.0625,-15.75,8.875,-44.75
2021-06-17T15:56:35.189,0.05,-0.41,9.87,0.0,0.0625,0.0625,-16.5,8.5,-45.25
2021-06-17T15:56:35.202,0.06,-0.4,9.87,0.0,-0.125,0.125,-16.5,8.5,-45.25
2021-06-17T15:56:35.215,0.06,-0.39,9.84,0.0625,0.0,0.0,-16.5,8.5,-45.25
2021-06-17T15:56:35.228,0.03,-0.42,9.83,0.0625,0.0,-0.0625,-16.5,8.5,-45.25
2021-06-17T15:56:35.241,0.06,-0.41,9.85,-0.0625,-0.0625,0.0,-16.875,8.875,-46.375
2021-06-17T15:56:35.253,0.06,-0.39,9.81,-0.0625,-0.0625,0.125,-16.875,8.875,-46.375
2021-06-17T15:56:35.266,0.04,-0.4,9.84,-0.0625,-0.125,0.0625,-16.875,8.875,-46.375
2021-06-17T15:56:35.279,0.06,-0.39,9.85,0.125,0.0625,0.0625,-16.875,8.875,-46.375
2021-06-17T15:56:35.292,0.05,-0.41,9.84,0.0625,-0.1875,0.0,-16.5,8.875,-46.0
2021-06-17T15:56:35.305,0.05,-0.4,9.83,-0.0625,0.0,-0.0625,-16.5,8.875,-46.0
2021-06-17T15:56:35.318,0.04,-0.43,9.85,-0.0625,0.0625,0.0,-16.5,8.875,-46.0
2021-06-17T15:56:35.331,0.07,-0.42,9.84,0.0625,0.0,0.1875,-15.75,9.25,-45.5625
2021-06-17T15:56:35.343,0.06,-0.38,9.85,-0.1875,-0.0625,-0.0625,-15.75,9.25,-45.5625
2021-06-17T15:56:35.372,0.04,-0.4,9.83,0.0,0.0,0.0625,-15.75,9.25,-45.5625
2021-06-17T15:56:35.385,0.04,-0.4,9.82,0.0625,0.125,0.0625,-16.1875,8.5,-45.5625
2021-06-17T15:56:35.398,0.06,-0.41,9.81,0.0,0.0,-0.0625,-16.1875,8.5,-45.5625
2021-06-17T15:56:35.411,0.05,-0.4,9.83,0.0,-0.0625,0.0,-16.1875,8.5,-45.5625
2021-06-17T15:56:35.425,0.05,-0.39,9.88,0.25,0.0,-0.0625,-16.1875,8.5,-45.5625
2021-06-17T15:56:35.437,0.05,-0.43,9.82,0.0625,0.0625,0.0,-16.875,8.875,-45.25
2021-06-17T15:56:35.449,0.06,-0.39,9.84,0.0625,-0.125,0.0,-16.875,8.875,-45.25
2021-06-17T15:56:35.462,0.06,-0.38,9.8,0.125,0.0625,-0.0625,-16.875,8.875,-45.25
2021-06-17T15:56:35.475,0.04,-0.42,9.85,0.0,-0.0625,0.0,-16.875,8.875,-45.25
2021-06-17T15:56:35.488,0.05,-0.41,9.88,0.0,0.0625,0.125,-16.5,9.25,-46.0625
2021-06-17T15:56:35.501,0.07,-0.4,9.84,0.0625,0.0,0.0,-16.5,9.25,-46.0625
2021-06-17T15:56:35.514,0.04,-0.39,9.83,0.0,-0.125,0.0,-16.5,9.25,-46.0625
2021-06-17T15:56:35.527,0.04,-0.4,9.85,0.0625,-0.0625,0.0,-16.5,9.25,-46.0625
2021-06-17T15:56:35.54,0.06,-0.41,9.85,-0.125,0.0625,0.0,-16.875,8.5,-45.5625
2021-06-17T15:56:35.553,0.07,-0.41,9.83,0.0,0.0,0.0,-16.875,8.5,-45.5625
2021-06-17T15:56:35.566,0.06,-0.4,9.82,0.0,-0.0625,0.125,-16.875,8.5,-45.5625
2021-06-17T15:56:35.578,0.06,-0.4,9.86,-0.0625,-0.1875,0.0,-16.875,8.5,-45.5625
2021-06-17T15:56:35.599,0.05,-0.4,9.8,0.125,0.0625,0.0,-16.1875,9.25,-45.5625
2021-06-17T15:56:35.613,0.06,-0.43,9.83,0.0,0.0625,0.0,-16.1875,9.25,-45.5625
2021-06-17T15:56:35.626,0.07,-0.43,9.84,0.0625,0.0,0.0625,-16.1875,9.25,-45.5625
2021-06-17T15:56:35.639,0.07,-0.4,9.82,0.125,-0.0625,0.0625,-17.25,9.25,-44.75
2021-06-17T15:56:35.651,0.04,-0.4,9.82,0.0,0.0,0.0625,-17.25,9.25,-44.75
2021-06-17T15:56:35.664,0.06,-0.38,9.8,0.0,-0.0625,0.125,-17.25,9.25,-44.75
2021-06-17T15:56:35.677,0.06,-0.4,9.86,-0.0625,-0.1875,0.0,-17.25,9.25,-44.75
2021-06-17T15:56:35.69,0.04,-0.4,9.86,0.0625,0.125,0.0625,-16.5,9.6875,-46.375
2021-06-17T15:56:35.703,0.06,-0.39,9.82,0.0625,0.0,-0.0625,-16.5,9.6875,-46.375
2021-06-17T15:56:35.716,0.05,-0.41,9.86,0.0625,-0.0625,0.0,-16.5,9.6875,-46.375
2021-06-17T15:56:35.728,0.06,-0.4,9.86,0.0625,0.0625,0.0625,-16.5,9.6875,-46.375
2021-06-17T15:56:35.741,0.05,-0.4,9.86,0.0625,0.0,0.0,-15.75,8.1875,-45.5625
2021-06-17T15:56:35.754,0.05,-0.4,9.84,0.125,-0.125,0.125,-15.75,8.1875,-45.5625
2021-06-17T15:56:35.767,0.07,-0.39,9.83,0.0625,-0.0625,0.0,-15.75,8.1875,-45.5625
2021-06-17T15:56:35.78,0.04,-0.4,9.84,0.0625,-0.0625,0.125,-15.75,8.1875,-45.5625
2021-06-17T15:56:35.793,0.06,-0.4,9.85,0.0625,0.0,0.0625,-16.875,8.875,-45.5625
2021-06-17T15:56:35.806,0.06,-0.4,9.85,-0.0625,-0.0625,-0.0625,-16.875,8.875,-45.5625
2021-06-17T15:56:35.83,0.06,-0.41,9.84,0.125,0.0,-0.0625,-16.1875,9.25,-44.75
2021-06-17T15:56:35.847,0.06,-0.38,9.85,-0.0625,0.0,0.0625,-16.1875,9.25,-44.75
2021-06-17T15:56:35.86,0.04,-0.41,9.82,-0.0625,0.125,0.0,-16.1875,9.25,-44.75
2021-06-17T15:56:35.873,0.05,-0.38,9.85,0.0625,-0.125,-0.0625,-16.1875,9.25,-44.75
2021-06-17T15:56:35.886,0.04,-0.41,9.88,-0.125,0.0,0.125,-16.5,9.6875,-45.5625
2021-06-17T15:56:35.898,0.05,-0.4,9.85,0.0,0.0,0.0,-16.5,9.6875,-45.5625
2021-06-17T15:56:35.911,0.05,-0.38,9.82,0.0625,0.0,0.0,-16.5,9.6875,-45.5625
2021-06-17T15:56:35.924,0.05,-0.39,9.84,0.0,-0.0625,-0.0625,-16.5,9.6875,-45.5625
2021-06-17T15:56:35.937,0.05,-0.42,9.87,-0.0625,-0.125,0.0,-16.1875,8.5,-46.0625
2021-06-17T15:56:35.95,0.06,-0.39,9.83,0.125,-0.3125,0.0,-16.1875,8.5,-46.0625
2021-06-17T15:56:35.963,0.07,-0.39,9.83,0.125,-0.1875,0.0625,-16.1875,8.5,-46.0625
2021-06-17T15:56:35.976,0.04,-0.4,9.84,0.0,0.125,0.0,-16.1875,8.5,-46.0625
2021-06-17T15:56:35.989,0.06,-0.4,9.86,0.0,0.0,-0.0625,-16.875,9.6875,-44.75
2021-06-17T15:56:36.002,0.06,-0.4,9.85,0.0,0.0625,-0.0625,-16.875,9.6875,-44.75
2021-06-17T15:56:36.015,0.05,-0.39,9.8,0.0625,0.0,0.0625,-16.875,9.6875,-44.75
2021-06-17T15:56:36.028,0.07,-0.41,9.85,-0.0625,0.0625,0.125,-16.875,9.6875,-44.75
2021-06-17T15:56:36.04,0.06,-0.4,9.87,0.0,0.0,-0.0625,-16.1875,8.5,-46.0
2021-06-17T15:56:36.075,0.05,-0.4,9.85,0.0625,0.0,0.0,-16.1875,8.5,-46.0
2021-06-17T15:56:36.088,0.07,-0.38,9.87,0.0,-0.125,0.0,-15.75,9.25,-45.5625
2021-06-17T15:56:36.1,0.05,-0.42,9.87,0.0,0.0625,0.0625,-15.75,9.25,-45.5625
2021-06-17T15:56:36.113,0.05,-0.39,9.86,0.0,-0.125,0.0,-15.75,9.25,-45.5625
2021-06-17T15:56:36.126,0.05,-0.39,9.84,0.0,0.0625,-0.0625,-15.75,9.25,-45.5625
2021-06-17T15:56:36.139,0.04,-0.4,9.84,0.1875,0.0,-0.125,-16.1875,8.875,-45.5625
2021-06-17T15:56:36.152,0.07,-0.42,9.82,0.0625,0.0625,0.0,-16.1875,8.875,-45.5625
2021-06-17T15:56:36.165,0.06,-0.39,9.85,-0.125,-0.1875,-0.125,-16.1875,8.875,-45.5625
2021-06-17T15:56:36.177,0.07,-0.4,9.86,0.0625,-0.0625,-0.0625,-16.1875,8.875,-45.5625
2021-06-17T15:56:36.19,0.04,-0.41,9.86,0.125,0.0,-0.125,-16.5,8.875,-45.1875
2021-06-17T15:56:36.203,0.05,-0.41,9.85,0.0,0.0,-0.0625,-16.5,8.875,-45.1875
2021-06-17T15:56:36.216,0.05,-0.4,9.85,0.0,-0.125,0.0625,-16.5,8.875,-45.1875
2021-06-17T15:56:36.229,0.07,-0.39,9.85,0.0,0.0625,-0.1875,-16.5,8.875,-45.1875
2021-06-17T15:56:36.242,0.07,-0.39,9.87,0.0,0.125,-0.0625,-16.1875,8.875,-44.75
2021-06-17T15:56:36.254,0.06,-0.4,9.83,0.0625,-0.1875,-0.1875,-16.1875,8.875,-44.75
2021-06-17T15:56:36.267,0.05,-0.41,9.84,0.0,-0.0625,0.0,-16.1875,8.875,-44.75
2021-06-17T15:56:36.309,0.08,-0.4,9.84,0.0625,-0.0625,0.1875,-16.875,9.6875,-44.375
2021-06-17T15:56:36.322,0.06,-0.4,9.83,0.0625,0.0,0.0625,-16.875,9.6875,-44.375
2021-06-17T15:56:36.334,0.05,-0.42,9.84,0.125,0.0,0.0625,-16.875,9.6875,-44.375
2021-06-17T15:56:36.347,0.06,-0.38,9.85,0.0625,0.125,0.0,-16.5,9.6875,-45.25
2021-06-17T15:56:36.36,0.07,-0.4,9.83,0.0625,0.0,0.125,-16.5,9.6875,-45.25
2021-06-17T15:56:36.373,0.07,-0.4,9.86,0.0625,-0.0625,0.125,-16.5,9.6875,-45.25
2021-06-17T15:56:36.386,0.06,-0.4,9.86,0.0625,-0.125,0.0625,-17.25,8.875,-45.5625
2021-06-17T15:56:36.398,0.05,-0.39,9.85,0.0,-0.125,0.0,-17.25,8.875,-45.5625
2021-06-17T15:56:36.411,0.06,-0.38,9.84,-0.0625,-0.125,0.0625,-17.25,8.875,-45.5625
2021-06-17T15:56:36.424,0.06,-0.4,9.83,-0.0625,-0.125,0.0625,-17.25,8.875,-45.5625
2021-06-17T15:56:36.438,0.05,-0.4,9.87,-0.0625,0.125,0.125,-16.875,8.875,-45.25
2021-06-17T15:56:36.451,0.07,-0.4,9.88,0.0625,0.0,0.0625,-16.875,8.875,-45.25
2021-06-17T15:56:36.464,0.05,-0.4,9.82,-0.0625,0.125,0.0625,-16.875,8.875,-45.25
2021-06-17T15:56:36.476,0.04,-0.4,9.83,0.125,-0.0625,0.0,-16.875,8.875,-45.25
2021-06-17T15:56:36.489,0.05,-0.42,9.86,0.1875,0.0625,-0.125,-16.875,8.5,-45.5625
2021-06-17T15:56:36.502,0.05,-0.42,9.86,0.125,-0.3125,0.125,-16.875,8.5,-45.5625
2021-06-17T15:56:36.515,0.05,-0.38,9.83,0.0625,-0.125,0.0625,-16.875,8.5,-45.5625
2021-06-17T15:56:36.535,0.07,-0.42,9.87,0.0,0.0,0.125,-17.25,9.6875,-45.25
2021-06-17T15:56:36.549,0.06,-0.42,9.84,0.0625,0.0625,0.0625,-17.25,9.6875,-45.25
2021-06-17T15:56:36.562,0.03,-0.4,9.82,0.0,0.0,-0.0625,-17.25,9.6875,-45.25
2021-06-17T15:56:36.575,0.04,-0.39,9.85,0.0625,-0.125,0.125,-17.25,9.6875,-45.25
2021-06-17T15:56:36.588,0.04,-0.41,9.86,0.0625,0.0625,0.0,-16.875,9.6875,-46.375
2021-06-17T15:56:36.601,0.05,-0.4,9.85,-0.125,-0.125,0.125,-16.875,9.6875,-46.375
2021-06-17T15:56:36.613,0.04,-0.39,9.86,0.125,-0.0625,0.0625,-16.875,9.6875,-46.375
2021-06-17T15:56:36.626,0.06,-0.4,9.86,-0.0625,-0.125,0.0,-16.875,9.6875,-46.375
2021-06-17T15:56:36.639,0.06,-0.39,9.86,0.125,0.0625,0.125,-16.1875,9.6875,-45.5625
2021-06-17T15:56:36.652,0.05,-0.39,9.83,0.0,0.0,0.0,-16.1875,9.6875,-45.5625
2021-06-17T15:56:36.665,0.04,-0.42,9.84,0.0,-0.0625,0.0625,-16.1875,9.6875,-45.5625
2021-06-17T15:56:36.678,0.06,-0.4,9.86,0.0625,-0.0625,0.0,-16.1875,9.6875,-45.5625
2021-06-17T15:56:36.69,0.05,-0.39,9.84,0.0625,0.0,0.0,-16.875,8.5,-45.5625
2021-06-17T15:56:36.703,0.05,-0.41,9.81,0.0,-0.0625,-0.0625,-16.875,8.5,-45.5625
2021-06-17T15:56:36.716,0.04,-0.38,9.83,0.0625,-0.0625,0.125,-16.875,8.5,-45.5625
2021-06-17T15:56:36.729,0.03,-0.4,9.85,-0.0625,-0.0625,0.0625,-16.875,8.5,-45.5625
2021-06-17T15:56:36.742,0.06,-0.39,9.87,0.125,-0.0625,0.0,-16.875,9.25,-45.25
2021-06-17T15:56:36.765,0.04,-0.41,9.86,0.0625,0.0,0.0625,-16.875,9.25,-45.25
2021-06-17T15:56:36.783,0.08,-0.39,9.85,-0.0625,-0.0625,0.0,-16.875,9.25,-45.25
2021-06-17T15:56:36.796,0.04,-0.4,9.86,0.0625,0.0625,0.0625,-16.875,9.25,-45.5625
2021-06-17T15:56:36.809,0.04,-0.41,9.82,0.0,-0.125,-0.0625,-16.875,9.25,-45.5625
2021-06-17T15:56:36.822,0.06,-0.38,9.86,0.0,0.0,-0.125,-16.875,9.25,-45.5625
2021-06-17T15:56:36.835,0.05,-0.41,9.83,0.0625,0.0,0.0,-16.875,9.25,-45.5625
2021-06-17T15:56:36.847,0.06,-0.4,9.87,0.1875,-0.125,0.0,-16.875,9.6875,-45.1875
2021-06-17T15:56:36.86,0.05,-0.39,9.84,0.0,0.125,0.0,-16.875,9.6875,-45.1875
2021-06-17T15:56:36.873,0.04,-0.38,9.83,0.0625,0.125,0.0625,-16.875,9.6875,-45.1875
2021-06-17T15:56:36.886,0.05,-0.41,9.83,0.125,0.0,0.0,-16.875,9.6875,-45.1875
2021-06-17T15:56:36.899,0.05,-0.39,9.87,0.0,-0.0625,-0.0625,-16.875,8.875,-45.25
2021-06-17T15:56:36.912,0.05,-0.4,9.83,0.125,-0.125,0.125,-16.875,8.875,-45.25
2021-06-17T15:56:36.925,0.05,-0.41,9.85,0.0,-0.0625,-0.0625,-16.875,8.875,-45.25
2021-06-17T15:56:36.938,0.05,-0.4,9.85,0.0625,-0.0625,0.0,-16.1875,9.6875,-46.0
2021-06-17T15:56:36.951,0.05,-0.39,9.82,0.0625,0.0,-0.0625,-16.1875,9.6875,-46.0
2021-06-17T15:56:36.963,0.07,-0.41,9.82,0.0625,-0.1875,0.0625,-16.1875,9.6875,-46.0
2021-06-17T15:56:36.976,0.04,-0.4,9.82,0.125,-0.0625,-0.125,-16.1875,9.6875,-46.0
2021-06-17T15:56:37.013,0.04,-0.41,9.84,0.125,0.0,0.0625,-16.1875,8.875,-44.75
2021-06-17T15:56:37.024,0.06,-0.41,9.85,0.0,-0.125,-0.1875,-16.1875,8.875,-44.75
2021-06-17T15:56:37.037,0.06,-0.41,9.84,0.0625,0.0,-0.125,-16.875,9.6875,-44.75
2021-06-17T15:56:37.05,0.06,-0.38,9.86,0.0625,0.0,0.0,-16.875,9.6875,-44.75
2021-06-17T15:56:37.063,0.06,-0.4,9.82,-0.0625,0.0,-0.0625,-16.875,9.6875,-44.75
2021-06-17T15:56:37.075,0.05,-0.4,9.82,0.0,-0.0625,0.0625,-16.875,9.6875,-44.75
2021-06-17T15:56:37.088,0.06,-0.39,9.85,-0.0625,-0.0625,0.0,-15.75,9.6875,-46.75
2021-06-17T15:56:37.101,0.04,-0.38,9.84,-0.125,0.0625,0.0625,-15.75,9.6875,-46.75
2021-06-17T15:56:37.114,0.04,-0.41,9.84,-0.0625,0.0625,-0.0625,-15.75,9.6875,-46.75
2021-06-17T15:56:37.127,0.05,-0.4,9.83,0.0,-0.125,-0.0625,-15.75,9.6875,-46.75
2021-06-17T15:56:37.14,0.04,-0.39,9.83,-0.0625,-0.0625,-0.0625,-15.75,8.1875,-46.375
2021-06-17T15:56:37.152,0.06,-0.39,9.86,0.0,0.0,0.0,-15.75,8.1875,-46.375
2021-06-17T15:56:37.165,0.04,-0.39,9.84,0.0625,0.0,-0.0625,-15.75,8.1875,-46.375
2021-06-17T15:56:37.178,0.07,-0.4,9.83,0.0625,-0.0625,0.0625,-15.75,8.1875,-46.375
2021-06-17T15:56:37.191,0.06,-0.38,9.87,0.0625,0.1875,-0.0625,-16.5,9.6875,-45.5625
2021-06-17T15:56:37.204,0.04,-0.39,9.84,0.1875,0.0,-0.0625,-16.5,9.6875,-45.5625
2021-06-17T15:56:37.245,0.05,-0.39,9.84,0.125,-0.125,-0.0625,-16.5,9.6875,-45.5625
2021-06-17T15:56:37.258,0.05,-0.38,9.84,0.0,-0.0625,0.0,-16.5,9.6875,-45.5625
2021-06-17T15:56:37.271,0.05,-0.4,9.84,0.0,-0.125,0.0,-16.5,9.6875,-45.5625
2021-06-17T15:56:37.284,0.05,-0.42,9.86,0.125,0.0,0.0,-16.5,9.6875,-45.5625
2021-06-17T15:56:37.297,0.05,-0.41,9.86,-0.1875,0.0625,0.0625,-16.5,9.25,-44.75
2021-06-17T15:56:37.309,0.04,-0.39,9.8,0.0625,0.0,0.0625,-16.5,9.25,-44.75
2021-06-17T15:56:37.322,0.04,-0.42,9.84,-0.0625,0.0,0.0,-16.5,9.25,-44.75
2021-06-17T15:56:37.335,0.05,-0.41,9.86,0.0625,-0.0625,-0.125,-16.5,9.25,-44.75
2021-06-17T15:56:37.348,0.07,-0.4,9.85,-0.0625,0.125,0.0,-16.875,9.25,-46.75
2021-06-17T15:56:37.362,0.04,-0.41,9.82,0.0625,0.125,-0.0625,-16.875,9.25,-46.75
2021-06-17T15:56:37.374,0.04,-0.4,9.86,0.0625,0.0,0.0625,-16.875,9.25,-46.75
2021-06-17T15:56:37.387,0.03,-0.39,9.87,0.125,-0.3125,-0.0625,-16.875,9.25,-46.75
2021-06-17T15:56:37.4,0.05,-0.4,9.86,-0.125,0.0,0.0,-15.75,9.6875,-46.0625
2021-06-17T15:56:37.413,0.05,-0.41,9.81,0.125,0.0,-0.0625,-15.75,9.6875,-46.0625
2021-06-17T15:56:37.426,0.05,-0.4,9.85,-0.125,0.0,0.0,-15.75,9.6875,-46.0625
2021-06-17T15:56:37.438,0.03,-0.39,9.86,0.125,-0.125,0.0625,-15.75,9.6875,-46.0625
2021-06-17T15:56:37.451,0.04,-0.41,9.86,0.1875,-0.0625,-0.125,-16.1875,9.6875,-46.0
2021-06-17T15:56:37.472,0.06,-0.38,9.81,0.1875,-0.0625,0.0,-16.1875,9.6875,-46.0
2021-06-17T15:56:37.486,0.07,-0.4,9.83,0.0,-0.0625,0.0,-16.1875,9.6875,-46.0
2021-06-17T15:56:37.499,0.05,-0.41,9.83,0.0625,0.0625,-0.125,-15.75,9.6875,-45.5625
2021-06-17T15:56:37.512,0.05,-0.4,9.82,0.0,0.1875,-0.0625,-15.75,9.6875,-45.5625
2021-06-17T15:56:37.524,0.07,-0.42,9.86,0.125,0.125,-0.0625,-15.75,9.6875,-45.5625
2021-06-17T15:56:37.537,0.05,-0.39,9.88,0.0,0.0,0.0,-16.875,8.875,-46.375
2021-06-17T15:56:37.55,0.05,-0.41,9.84,0.125,-0.1875,0.0625,-16.875,8.875,-46.375
2021-06-17T15:56:37.563,0.06,-0.4,9.8,0.0625,0.0,-0.0625,-16.875,8.875,-46.375
2021-06-17T15:56:37.576,0.06,-0.4,9.84,0.0,0.0,0.0625,-16.875,8.875,-46.375
2021-06-17T15:56:37.589,0.06,-0.39,9.86,0.0625,-0.1875,0.0,-16.5,9.6875,-46.375
2021-06-17T15:56:37.602,0.04,-0.4,9.87,-0.0625,0.125,-0.0625,-16.5,9.6875,-46.375
2021-06-17T15:56:37.615,0.05,-0.41,9.83,0.0625,-0.0625,-0.1875,-16.5,9.6875,-46.375
2021-06-17T15:56:37.627,0.05,-0.4,9.86,0.0625,0.125,-0.0625,-16.5,9.6875,-46.375
2021-06-17T15:56:37.64,0.05,-0.38,9.85,-0.0625,-0.1875,0.0625,-16.5,9.6875,-44.375
2021-06-17T15:56:37.653,0.04,-0.4,9.88,0.0,-0.0625,-0.0625,-16.5,9.6875,-44.375
2021-06-17T15:56:37.666,0.05,-0.4,9.84,0.0,0.0625,0.0,-16.5,9.6875,-44.375
2021-06-17T15:56:37.679,0.05,-0.4,9.85,-0.0625,-0.0625,0.0,-16.5,9.6875,-44.375
2021-06-17T15:56:37.702,0.05,-0.42,9.86,0.0,-0.125,-0.0625,-17.25,8.875,-46.375
2021-06-17T15:56:37.72,0.01,-0.37,9.84,0.0625,-0.1875,-0.0625,-17.25,8.875,-46.375
2021-06-17T15:56:37.733,0.07,-0.4,9.85,0.125,0.0625,0.0,-17.25,8.875,-46.375
2021-06-17T15:56:37.747,0.04,-0.39,9.84,-0.0625,0.125,0.0,-16.1875,9.25,-45.25
2021-06-17T15:56:37.759,0.05,-0.39,9.84,0.125,0.125,-0.125,-16.1875,9.25,-45.25
2021-06-17T15:56:37.771,0.04,-0.39,9.84,0.0,0.125,0.0,-16.1875,9.25,-45.25
2021-06-17T15:56:37.784,0.06,-0.41,9.82,0.0625,0.0625,-0.0625,-16.1875,9.25,-45.25
2021-06-17T15:56:37.797,0.04,-0.38,9.86,0.125,0.125,0.0625,-16.5,10.0,-45.5625
2021-06-17T15:56:37.81,0.05,-0.39,9.83,-0.0625,0.0625,-0.0625,-16.5,10.0,-45.5625
2021-06-17T15:56:37.823,0.06,-0.4,9.83,-0.0625,0.1875,-0.125,-16.5,10.0,-45.5625
2021-06-17T15:56:37.836,0.06,-0.38,9.84,0.0,0.0625,-0.125,-16.5,10.0,-45.5625
2021-06-17T15:56:37.849,0.07,-0.41,9.85,-0.0625,-0.125,0.0,-17.25,9.25,-46.0
2021-06-17T15:56:37.862,0.05,-0.41,9.84,-0.1875,0.0625,0.0625,-17.25,9.25,-46.0
2021-06-17T15:56:37.875,0.04,-0.39,9.83,0.0,-0.125,0.0,-17.25,9.25,-46.0
2021-06-17T15:56:37.887,0.04,-0.39,9.82,0.0625,-0.0625,0.0,-17.25,9.25,-46.0
2021-06-17T15:56:37.9,0.07,-0.41,9.84,0.0625,-0.0625,-0.125,-15.375,9.25,-46.0
2021-06-17T15:56:37.913,0.04,-0.41,9.83,-0.125,-0.0625,0.0625,-15.375,9.25,-46.0
2021-06-17T15:56:37.934,0.03,-0.42,9.83,-0.0625,-0.1875,0.0625,-15.375,9.25,-46.0
2021-06-17T15:56:37.947,0.06,-0.41,9.86,-0.125,-0.125,0.0625,-16.1875,10.0,-45.25
2021-06-17T15:56:37.96,0.05,-0.4,9.8,-0.0625,-0.125,-0.0625,-16.1875,10.0,-45.25
2021-06-17T15:56:37.973,0.05,-0.41,9.82,-0.125,-0.0625,0.0,-16.1875,10.0,-45.25
2021-06-17T15:56:37.986,0.06,-0.39,9.82,0.0625,-0.0625,0.0625,-16.1875,10.0,-45.25
2021-06-17T15:56:37.999,0.06,-0.41,9.84,-0.0625,0.0,-0.0625,-16.1875,8.875,-46.0
2021-06-17T15:56:38.012,0.07,-0.4,9.83,0.0,-0.0625,0.0,-16.1875,8.875,-46.0
2021-06-17T15:56:38.024,0.05,-0.42,9.85,-0.0625,0.0,-0.0625,-16.1875,8.875,-46.0
2021-06-17T15:56:38.037,0.05,-0.42,9.84,-0.1875,0.0,0.0,-16.5,8.875,-45.25
2021-06-17T15:56:38.05,0.05,-0.4,9.81,-0.0625,-0.125,0.0625,-16.5,8.875,-45.25
2021-06-17T15:56:38.064,0.08,-0.39,9.83,0.0625,-0.0625,-0.0625,-16.5,8.875,-45.25
2021-06-17T15:56:38.076,0.06,-0.4,9.83,0.0,0.0,-0.1875,-16.5,8.875,-45.25
2021-06-17T15:56:38.089,0.04,-0.41,9.82,-0.0625,0.0625,-0.0625,-15.375,9.25,-46.0
2021-06-17T15:56:38.102,0.07,-0.39,9.83,0.0,0.1875,-0.0625,-15.375,9.25,-46.0
2021-06-17T15:56:38.115,0.06,-0.39,9.8,-0.0625,0.0,0.0,-15.375,9.25,-46.0
2021-06-17T15:56:38.128,0.05,-0.38,9.84,-0.1875,0.0625,-0.125,-15.375,9.25,-46.0
2021-06-17T15:56:38.203,0.04,-0.4,9.84,0.0,0.0,-0.0625,-16.875,8.875,-46.0
2021-06-17T15:56:38.216,0.04,-0.39,9.81,0.0,0.0625,-0.0625,-16.875,8.875,-46.0
2021-06-17T15:56:38.229,0.05,-0.4,9.81,0.0625,0.125,-0.125,-16.875,8.875,-46.0
2021-06-17T15:56:38.242,0.04,-0.42,9.84,-0.0625,0.0625,0.0,-16.875,9.25,-45.1875
2021-06-17T15:56:38.255,0.05,-0.41,9.85,0.0,0.0,-0.125,-16.875,9.25,-45.1875
2021-06-17T15:56:38.267,0.06,-0.39,9.8,-0.0625,0.125,-0.0625,-16.875,9.25,-45.1875
2021-06-17T15:56:38.28,0.06,-0.39,9.85,0.0,0.0,-0.0625,-16.875,9.25,-45.1875
2021-06-17T15:56:38.293,0.06,-0.4,9.84,-0.125,0.0625,-0.0625,-16.5,9.6875,-45.5625
2021-06-17T15:56:38.306,0.05,-0.43,9.84,0.0625,0.0,0.0625,-16.5,9.6875,-45.5625
2021-06-17T15:56:38.319,0.05,-0.4,9.84,0.0,-0.125,-0.0625,-16.5,9.6875,-45.5625
2021-06-17T15:56:38.332,0.06,-0.41,9.83,0.1875,-0.0625,0.0625,-16.5,9.6875,-45.5625
2021-06-17T15:56:38.344,0.05,-0.41,9.86,0.125,-0.125,0.0625,-16.5,8.5,-45.25
2021-06-17T15:56:38.357,0.04,-0.39,9.86,0.1875,-0.125,0.0,-16.5,8.5,-45.25
2021-06-17T15:56:38.37,0.05,-0.4,9.82,0.0,0.0625,-0.125,-16.5,8.5,-45.25
2021-06-17T15:56:38.383,0.05,-0.4,9.86,0.0,0.0625,0.0625,-16.5,8.5,-45.25
2021-06-17T15:56:38.412,0.04,-0.4,9.82,0.125,0.0625,0.0625,-16.5,8.875,-45.1875
2021-06-17T15:56:38.425,0.06,-0.41,9.82,-0.0625,0.125,0.0625,-16.5,8.875,-45.1875
2021-06-17T15:56:38.438,0.05,-0.4,9.84,-0.0625,0.0,-0.0625,-16.5,8.875,-45.1875
2021-06-17T15:56:38.451,0.06,-0.38,9.86,0.125,0.0625,-0.0625,-15.75,9.6875,-46.0
2021-06-17T15:56:38.463,0.05,-0.4,9.83,-0.0625,-0.0625,0.0,-15.75,9.6875,-46.0
2021-06-17T15:56:38.476,0.07,-0.38,9.8,0.0625,-0.0625,0.0,-15.75,9.6875,-46.0
2021-06-17T15:56:38.489,0.06,-0.39,9.85,-0.125,0.0,0.0,-15.75,9.6875,-46.0
2021-06-17T15:56:38.502,0.04,-0.41,9.84,0.0,-0.125,-0.0625,-15.75,9.25,-45.5625
2021-06-17T15:56:38.515,0.04,-0.41,9.82,0.1875,0.0,0.0,-15.75,9.25,-45.5625
2021-06-17T15:56:38.528,0.05,-0.41,9.85,-0.0625,-0.0625,0.0,-15.75,9.25,-45.5625
2021-06-17T15:56:38.541,0.05,-0.38,9.85,0.0,0.0,0.0,-15.75,9.25,-45.5625
2021-06-17T15:56:38.554,0.06,-0.41,9.81,0.0,0.0625,0.0625,-16.5,9.25,-46.0625
2021-06-17T15:56:38.567,0.06,-0.39,9.8,0.0,-0.0625,0.125,-16.5,9.25,-46.0625
2021-06-17T15:56:38.58,0.04,-0.4,9.83,0.0625,-0.25,0.125,-16.5,9.25,-46.0625
2021-06-17T15:56:38.593,0.03,-0.4,9.84,0.0625,0.0,0.1875,-16.5,9.25,-46.0625
2021-06-17T15:56:38.605,0.05,-0.41,9.84,0.0,0.125,0.0,-16.5,9.25,-44.75
2021-06-17T15:56:38.618,0.05,-0.38,9.82,0.0,0.0,0.0,-16.5,9.25,-44.75
2021-06-17T15:56:38.639,0.06,-0.41,9.84,0.0,-0.125,0.0,-16.1875,8.875,-45.5625
2021-06-17T15:56:38.653,0.05,-0.43,9.84,0.0,-0.0625,0.0,-16.1875,8.875,-45.5625
2021-06-17T15:56:38.666,0.05,-0.41,9.82,-0.125,-0.1875,0.125,-16.1875,8.875,-45.5625
2021-06-17T15:56:38.679,0.06,-0.38,9.84,0.0,-0.0625,0.125,-16.1875,8.875,-45.5625
2021-06-17T15:56:38.691,0.05,-0.38,9.87,0.0625,0.0625,0.0625,-16.1875,8.5,-45.5625
2021-06-17T15:56:38.704,0.04,-0.4,9.82,0.0,0.0625,-0.125,-16.1875,8.5,-45.5625
2021-06-17T15:56:38.717,0.07,-0.41,9.82,0.0,0.0625,0.0,-16.1875,8.5,-45.5625
2021-06-17T15:56:38.73,0.07,-0.4,9.86,-0.0625,0.0,-0.0625,-16.1875,8.5,-45.5625
2021-06-17T15:56:38.743,0.05,-0.01,-0.01,-0.0625,0.0625,0.0625,-0.0625,-0.0625,-0.0625
2021-06-17T15:56:38.756,0.08,-0.41,9.85,0.0,0.125,0.0625,-16.875,9.6875,-45.25
2021-06-17T15:56:38.768,0.05,-0.42,9.82,0.0625,-0.1875,0.0625,-16.875,9.6875,-45.25
2021-06-17T15:56:38.781,0.05,-0.39,9.84,-0.1875,0.0,0.125,-16.875,9.6875,-45.25
2021-06-17T15:56:38.794,0.06,-0.4,9.85,0.0,0.0,0.0625,-16.1875,8.5,-46.0625
2021-06-17T15:56:38.807,0.04,-0.41,9.84,-0.125,0.1875,0.0,-16.1875,8.5,-46.0625
2021-06-17T15:56:38.82,0.04,-0.39,9.85,0.125,0.0625,-0.125,-16.1875,8.5,-46.0625
2021-06-17T15:56:38.833,0.04,-0.41,9.84,-0.0625,-0.125,0.0625,-16.1875,8.5,-46.0625
2021-06-17T15:56:38.845,0.04,-0.42,9.83,0.0,0.0625,-0.125,-16.875,9.25,-46.0
2021-06-17T15:56:38.869,0.05,-0.42,9.83,0.0625,0.1875,-0.0625,-16.875,9.25,-46.0
2021-06-17T15:56:38.887,0.06,-0.41,9.83,-0.0625,-0.0625,0.125,-16.875,9.25,-46.0
2021-06-17T15:56:38.9,0.05,-0.41,9.85,0.0625,0.0625,-0.0625,-16.5,9.25,-45.25
2021-06-17T15:56:38.912,0.06,-0.4,9.84,0.0,0.0625,-0.125,-16.5,9.25,-45.25
2021-06-17T15:56:38.925,0.05,-0.4,9.82,-0.0625,0.0,0.0,-16.5,9.25,-45.25
2021-06-17T15:56:38.938,0.05,-0.41,9.82,-0.0625,0.0,0.0625,-16.5,9.25,-45.25
2021-06-17T15:56:38.951,0.06,-0.4,9.82,0.0,0.0625,0.0,-16.875,9.25,-46.0
2021-06-17T15:56:38.964,0.06,-0.4,9.79,0.0,-0.125,-0.0625,-16.875,9.25,-46.0
2021-06-17T15:56:38.977,0.06,-0.41,9.82,-0.0625,0.0,0.0625,-16.875,9.25,-46.0
2021-06-17T15:56:38.989,0.06,-0.4,9.86,0.0,0.0,0.0625,-16.875,9.25,-46.0
2021-06-17T15:56:39.003,0.05,-0.41,9.83,0.0,0.0,-0.0625,-16.5,9.6875,-46.0
2021-06-17T15:56:39.016,0.05,-0.41,9.83,-0.0625,0.0,-0.0625,-16.5,9.6875,-46.0
2021-06-17T15:56:39.029,0.04,-0.38,9.83,-0.125,0.0,0.0,-16.5,9.6875,-46.0
2021-06-17T15:56:39.042,0.07,-0.41,9.83,0.0,0.1875,0.0625,-16.5,9.6875,-46.0
2021-06-17T15:56:39.054,0.05,-0.42,9.83,-0.0625,0.0,-0.0625,-16.5,8.5,-44.75
2021-06-17T15:56:39.067,0.06,-0.4,9.83,0.0625,0.125,-0.125,-16.5,8.5,-44.75
2021-06-17T15:56:39.08,0.02,-0.41,9.83,0.125,0.0,0.0625,-16.5,8.5,-44.75
2021-06-17T15:56:39.115,0.07,-0.39,9.82,-0.0625,0.0,0.0625,-15.75,9.25,-46.0
2021-06-17T15:56:39.128,0.04,-0.39,9.82,-0.0625,-0.125,-0.0625,-15.75,9.25,-46.0
2021-06-17T15:56:39.141,0.05,-0.41,9.83,0.0625,-0.125,-0.1875,-16.1875,8.875,-45.1875
2021-06-17T15:56:39.153,0.05,-0.41,9.87,-0.0625,0.0625,0.0625,-16.1875,8.875,-45.1875
2021-06-17T15:56:39.166,0.05,-0.4,9.85,0.0625,0.0625,0.0,-16.1875,8.875,-45.1875
2021-06-17T15:56:39.179,0.05,-0.41,9.83,0.0,0.0,0.0,-16.1875,8.875,-45.1875
2021-06-17T15:56:39.192,0.06,-0.4,9.84,0.1875,0.0,0.0,-16.875,8.875,-45.5625
2021-06-17T15:56:39.205,0.05,-0.4,9.83,0.0,-0.0625,0.0,-16.875,8.875,-45.5625
2021-06-17T15:56:39.217,0.06,-0.41,9.82,0.0625,-0.0625,0.0625,-16.875,8.875,-45.5625
2021-06-17T15:56:39.23,0.05,-0.38,9.83,0.0,0.0625,0.0,-16.875,8.875,-45.5625
2021-06-17T15:56:39.243,0.02,-0.42,9.85,0.0625,0.0,-0.0625,-16.5,9.25,-45.5625
2021-06-17T15:56:39.256,0.06,-0.41,9.85,0.0,0.1875,-0.1875,-16.5,9.25,-45.5625
2021-06-17T15:56:39.269,0.07,-0.39,9.83,0.0,0.0,0.0,-16.5,9.25,-45.5625
2021-06-17T15:56:39.282,0.06,-0.41,9.85,0.0,0.0,0.0,-16.5,9.25,-45.5625
2021-06-17T15:56:39.295,0.05,-0.39,9.86,-0.0625,-0.25,0.0,-16.5,9.25,-44.75
2021-06-17T15:56:39.308,0.06,-0.39,9.85,0.0,-0.125,0.125,-16.5,9.25,-44.75
2021-06-17T15:56:39.349,0.06,-0.39,9.85,-0.0625,0.0,0.0625,-16.5,8.875,-46.375
2021-06-17T15:56:39.362,0.06,-0.39,9.85,-0.0625,-0.0625,0.125,-16.5,8.875,-46.375
2021-06-17T15:56:39.375,0.05,-0.4,9.85,0.0625,-0.0625,0.0625,-16.5,8.875,-46.375
2021-06-17T15:56:39.387,0.05,-0.4,9.81,-0.125,0.1875,0.0,-16.5,8.875,-46.375
2021-06-17T15:56:39.4,0.06,-0.38,9.87,0.1875,-0.0625,-0.0625,-16.1875,8.875,-46.375
2021-06-17T15:56:39.413,0.05,-0.4,9.82,0.0,0.0625,0.0625,-16.1875,8.875,-46.375
2021-06-17T15:56:39.426,0.07,-0.4,9.81,0.0,0.0,0.0,-16.1875,8.875,-46.375
2021-06-17T15:56:39.439,0.06,-0.4,9.86,0.125,0.0,-0.1875,-16.1875,8.875,-46.375
2021-06-17T15:56:39.452,0.05,-0.42,9.84,-0.0625,0.0625,0.0,-16.875,8.875,-45.25
2021-06-17T15:56:39.465,0.03,-0.39,9.82,0.0,0.0,0.125,-16.875,8.875,-45.25
2021-06-17T15:56:39.478,0.06,-0.41,9.83,0.0,0.0625,0.0,-16.875,8.875,-45.25
2021-06-17T15:56:39.491,0.05,-0.41,9.84,-0.0625,-0.0625,0.0,-16.875,8.875,-45.25
2021-06-17T15:56:39.504,0.04,-0.4,9.86,-0.0625,0.125,0.0,-16.875,8.5,-45.25
2021-06-17T15:56:39.516,0.05,-0.39,9.82,0.1875,0.0,0.0625,-16.875,8.5,-45.25
2021-06-17T15:56:39.529,0.05,-0.43,9.82,0.0,-0.0625,0.0,-16.875,8.5,-45.25
2021-06-17T15:56:39.542,0.06,-0.41,9.81,0.0625,0.0,0.0625,-16.875,8.5,-45.25
2021-06-17T15:56:39.555,0.05,-0.39,9.84,0.1875,-0.0625,-0.0625,-16.5,8.875,-45.25
2021-06-17T15:56:39.576,0.06,-0.38,9.81,-0.0625,0.0,0.125,-16.5,8.875,-45.25
2021-06-17T15:56:39.589,0.06,-0.4,9.85,0.125,0.0,-0.0625,-16.5,8.875,-45.25
2021-06-17T15:56:39.602,0.03,-0.39,9.83,-0.0625,-0.0625,0.0,-17.6875,8.5,-46.375
2021-06-17T15:56:39.615,0.06,-0.42,9.81,0.0625,-0.0625,0.0625,-17.6875,8.5,-46.375
2021-06-17T15:56:39.628,0.06,-0.39,9.8,0.0625,-0.125,-0.0625,-17.6875,8.5,-46.375
2021-06-17T15:56:39.641,0.06,-0.42,9.83,0.0,0.125,0.0625,-17.6875,8.5,-46.375
2021-06-17T15:56:39.654,0.04,-0.41,9.84,0.0625,0.0,0.125,-16.5,8.5,-45.25
2021-06-17T15:56:39.666,0.06,-0.4,9.82,0.0625,-0.1875,0.0625,-16.5,8.5,-45.25
2021-06-17T15:56:39.679,0.05,-0.39,9.85,-0.0625,0.1875,-0.0625,-16.5,8.5,-45.25
2021-06-17T15:56:39.692,0.06,-0.39,9.83,-0.0625,0.0,0.0,-16.5,8.5,-45.25
2021-06-17T15:56:39.705,0.06,-0.42,9.84,0.0,0.0625,0.0,-16.875,8.875,-46.0625
2021-06-17T15:56:39.718,0.04,-0.41,9.8,-0.0625,0.125,0.0,-16.875,8.875,-46.0625
2021-06-17T15:56:39.73,0.05,-0.39,9.84,-0.0625,0.0,0.0625,-16.875,8.875,-46.0625
2021-06-17T15:56:39.743,0.05,-0.41,9.84,0.0,0.0,-0.125,-16.1875,8.1875,-45.25
2021-06-17T15:56:39.756,0.05,-0.4,9.84,0.0,0.0,0.0,-16.1875,8.1875,-45.25
2021-06-17T15:56:39.769,0.05,-0.41,9.79,0.125,-0.125,0.0625,-16.1875,8.1875,-45.25
2021-06-17T15:56:39.782,0.05,-0.39,9.86,0.0625,0.1875,-0.0625,-16.1875,8.1875,-45.25
2021-06-17T15:56:39.805,0.04,-0.41,9.83,0.0,0.0625,0.0625,-16.1875,9.25,-45.5625
2021-06-17T15:56:39.823,0.07,-0.39,9.81,0.0,-0.0625,0.0,-16.1875,9.25,-45.5625
2021-06-17T15:56:39.836,0.06,-0.42,9.86,0.0625,-0.0625,0.0625,-16.1875,9.25,-45.5625
2021-06-17T15:56:39.849,0.05,-0.4,9.86,0.0625,0.0,0.0,-16.5,8.5,-45.25
2021-06-17T15:56:39.862,0.06,-0.41,9.83,0.0,0.0,0.0,-16.5,8.5,-45.25
2021-06-17T15:56:39.875,0.04,-0.42,9.83,-0.0625,0.125,0.0625,-16.5,8.5,-45.25
2021-06-17T15:56:39.887,0.05,-0.42,9.86,-0.0625,0.1875,0.125,-16.5,8.5,-45.25
2021-06-17T15:56:39.9,0.05,-0.41,9.85,0.0,-0.0625,0.0625,-16.875,8.875,-46.0
2021-06-17T15:56:39.913,0.05,-0.39,9.85,0.0625,-0.0625,0.0,-16.875,8.875,-46.0
2021-06-17T15:56:39.926,0.05,-0.42,9.83,0.0,0.0625,-0.0625,-16.875,8.875,-46.0
2021-06-17T15:56:39.939,0.05,-0.38,9.82,0.0,0.0,0.125,-16.875,8.875,-46.0
2021-06-17T15:56:39.952,0.04,-0.4,9.85,-0.0625,0.0625,0.125,-16.1875,9.25,-45.5625
2021-06-17T15:56:39.965,0.05,-0.41,9.85,0.0,0.0,0.0,-16.1875,9.25,-45.5625
2021-06-17T15:56:39.978,0.04,-0.39,9.84,0.0625,0.0,0.0,-16.1875,9.25,-45.5625
2021-06-17T15:56:39.991,0.05,-0.42,9.84,0.0,-0.125,0.125,-16.1875,9.25,-45.5625
2021-06-17T15:56:40.004,0.04,-0.41,9.85,0.125,-0.125,0.0,-16.875,9.6875,-46.75
2021-06-17T15:56:40.016,0.06,-0.39,9.85,0.0625,0.0625,0.125,-16.875,9.6875,-46.75
2021-06-17T15:56:40.051,0.05,-0.4,9.84,0.0,0.0625,0.125,-16.875,8.875,-46.0
2021-06-17T15:56:40.064,0.04,-0.39,9.82,0.0,-0.0625,0.0625,-16.875,8.875,-46.0
2021-06-17T15:56:40.077,0.07,-0.38,9.81,-0.0625,-0.0625,0.125,-16.875,8.875,-46.0
2021-06-17T15:56:40.089,0.06,-0.4,9.83,-0.125,0.1875,0.0625,-16.875,8.875,-46.0
2021-06-17T15:56:40.102,0.07,-0.4,9.85,0.0625,-0.0625,0.0625,-16.5,9.25,-45.5625
2021-06-17T15:56:40.115,0.05,-0.4,9.83,0.125,0.125,0.0625,-16.5,9.25,-45.5625
2021-06-17T15:56:40.128,0.05,-0.4,9.81,0.0,-0.1875,0.0625,-16.5,9.25,-45.5625
2021-06-17T15:56:40.141,0.05,-0.4,9.84,0.0625,-0.125,0.0,-16.5,9.25,-45.5625
2021-06-17T15:56:40.154,0.04,-0.4,9.86,0.0,-0.25,0.0,-16.875,8.5,-46.0
2021-06-17T15:56:40.166,0.04,-0.41,9.82,-0.0625,0.0625,-0.0625,-16.875,8.5,-46.0
2021-06-17T15:56:40.179,0.06,-0.4,9.84,0.0,0.0625,-0.0625,-16.875,8.5,-46.0
2021-06-17T15:56:40.192,0.05,-0.41,9.84,0.0,0.0,0.125,-16.875,8.5,-46.0
2021-06-17T15:56:40.205,0.06,-0.42,9.85,0.0,0.0,0.0625,-15.75,9.25,-45.25
2021-06-17T15:56:40.218,0.05,-0.4,9.8,0.0625,-0.0625,0.0625,-15.75,9.25,-45.25
2021-06-17T15:56:40.231,0.05,-0.41,9.81,0.125,-0.125,-0.0625,-15.75,9.25,-45.25
2021-06-17T15:56:40.244,0.04,-0.4,9.83,-0.0625,0.0,0.0,-16.875,8.875,-46.75
2021-06-17T15:56:40.285,0.05,-0.4,9.87,0.0625,-0.125,0.0,-16.875,8.875,-46.75
2021-06-17T15:56:40.298,0.05,-0.39,9.83,0.125,-0.0625,0.0,-17.25,9.6875,-45.25
2021-06-17T15:56:40.311,0.06,-0.38,9.83,0.0,0.125,0.0625,-17.25,9.6875,-45.25
2021-06-17T15:56:40.324,0.05,-0.39,9.83,0.0625,0.0625,0.0625,-17.25,9.6875,-45.25
2021-06-17T15:56:40.336,0.04,-0.42,9.84,0.0,0.1875,0.0,-17.25,9.6875,-45.25
2021-06-17T15:56:40.349,0.07,-0.41,9.82,-0.0625,0.1875,0.0,-15.75,8.5,-46.375
2021-06-17T15:56:40.362,0.05,-0.41,9.82,0.0625,0.1875,0.1875,-15.75,8.5,-46.375
2021-06-17T15:56:40.375,0.03,-0.4,9.82,0.125,0.0625,0.0,-15.75,8.5,-46.375
2021-06-17T15:56:40.388,0.06,-0.4,9.86,0.0,0.0625,0.0625,-15.75,8.5,-46.375
2021-06-17T15:56:40.4,0.04,-0.4,9.86,0.0625,0.0625,0.0625,-16.5,8.875,-46.0
2021-06-17T15:56:40.414,0.05,-0.4,9.85,0.0,0.25,-0.125,-16.5,8.875,-46.0
2021-06-17T15:56:40.427,0.05,-0.39,9.83,-0.0625,0.125,0.0,-16.5,8.875,-46.0
2021-06-17T15:56:40.44,0.04,-0.4,9.84,0.0,0.0625,0.1875,-16.5,8.875,-46.0
2021-06-17T15:56:40.453,0.06,-0.39,9.87,0.125,0.0,0.0625,-16.5,8.5,-45.1875
2021-06-17T15:56:40.465,0.06,-0.41,9.81,0.0625,0.0625,0.0625,-16.5,8.5,-45.1875
2021-06-17T15:56:40.478,0.07,-0.4,9.84,0.0,0.125,0.0625,-16.5,8.5,-45.1875
2021-06-17T15:56:40.491,0.07,-0.4,9.85,0.0,0.0625,0.1875,-16.5,8.5,-45.1875
2021-06-17T15:56:40.512,0.05,-0.41,9.85,0.125,0.125,0.0625,-16.1875,8.875,-46.0
2021-06-17T15:56:40.526,0.04,-0.4,9.83,-0.0625,0.0,0.0,-16.1875,8.875,-46.0
2021-06-17T15:56:40.538,0.05,-0.41,9.86,0.0,0.0,-0.0625,-16.1875,8.875,-46.0
2021-06-17T15:56:40.551,0.05,-0.39,9.86,0.0,0.125,0.0,-16.875,8.1875,-46.0
2021-06-17T15:56:40.564,0.06,-0.39,9.82,0.125,0.0,0.0,-16.875,8.1875,-46.0
2021-06-17T15:56:40.577,0.07,-0.38,9.83,0.0625,0.125,0.0,-16.875,8.1875,-46.0
2021-06-17T15:56:40.59,0.07,-0.4,9.84,0.0625,0.125,-0.0625,-16.875,8.1875,-46.0
2021-06-17T15:56:40.602,0.05,-0.4,9.84,-0.125,0.0625,0.0,-16.5,8.875,-46.0
2021-06-17T15:56:40.615,0.06,-0.41,9.81,-0.125,-0.0625,0.0625,-16.5,8.875,-46.0
2021-06-17T15:56:40.628,0.07,-0.4,9.84,0.125,0.0,0.125,-16.5,8.875,-46.0
2021-06-17T15:56:40.642,0.05,-0.4,9.8,0.0,0.0625,-0.0625,-16.5,8.875,-46.0
2021-06-17T15:56:40.655,0.04,-0.42,9.82,0.0,-0.125,0.125,-15.375,10.0,-45.25
2021-06-17T15:56:40.667,0.08,-0.4,9.79,0.0625,0.0625,-0.0625,-15.375,10.0,-45.25
2021-06-17T15:56:40.68,0.05,-0.42,9.86,-0.0625,-0.0625,0.0,-15.375,10.0,-45.25
2021-06-17T15:56:40.693,0.05,-0.42,9.83,0.125,0.0,0.0625,-15.375,10.0,-45.25
2021-06-17T15:56:40.706,0.05,-0.41,9.82,0.0625,0.0625,0.125,-16.875,9.6875,-46.0
2021-06-17T15:56:40.719,0.06,-0.4,9.83,0.0625,0.0625,0.0625,-16.875,9.6875,-46.0
2021-06-17T15:56:40.742,0.03,-0.41,9.82,0.1875,0.1875,0.125,-16.875,9.6875,-46.0
2021-06-17T15:56:40.756,0.06,-0.4,9.85,-0.0625,0.0625,0.0625,-16.1875,8.5,-45.5625
2021-06-17T15:56:40.769,0.05,-0.41,9.82,0.0,-0.0625,0.0625,-16.1875,8.5,-45.5625
2021-06-17T15:56:40.782,0.07,-0.4,9.81,0.1875,0.0,0.0,-16.1875,8.5,-45.5625
2021-06-17T15:56:40.795,0.05,-0.41,9.82,0.0625,0.125,0.0625,-16.1875,8.5,-45.5625
2021-06-17T15:56:40.808,0.06,-0.4,9.86,-0.0625,-0.125,0.0625,-16.5,8.875,-44.75
2021-06-17T15:56:40.821,0.05,-0.41,9.83,-0.125,0.0625,0.0,-16.5,8.875,-44.75
2021-06-17T15:56:40.833,0.04,-0.4,9.84,-0.125,-0.125,0.0625,-16.5,8.875,-44.75
2021-06-17T15:56:40.846,0.07,-0.37,9.86,-0.0625,0.0,0.0625,-16.1875,9.25,-44.0
2021-06-17T15:56:40.859,0.05,-0.4,9.85,-0.0625,0.0,-0.125,-16.1875,9.25,-44.0
2021-06-17T15:56:40.872,0.05,-0.39,9.81,-0.0625,-0.0625,0.0,-16.1875,9.25,-44.0
2021-06-17T15:56:40.885,0.07,-0.41,9.83,-0.125,0.0625,0.0,-16.1875,9.25,-44.0
2021-06-17T15:56:40.897,0.06,-0.41,9.85,-0.125,0.0,0.0,-15.75,8.5,-45.5625
2021-06-17T15:56:40.91,0.05,-0.38,9.84,0.0,-0.125,-0.125,-15.75,8.5,-45.5625
2021-06-17T15:56:40.923,0.06,-0.41,9.83,-0.0625,-0.0625,-0.0625,-15.75,8.5,-45.5625
2021-06-17T15:56:40.936,0.06,-0.42,9.81,0.0625,-0.0625,0.0,-15.75,8.5,-45.5625
2021-06-17T15:56:40.949,0.03,-0.39,9.85,-0.0625,-0.1875,0.0,-16.5,9.6875,-46.0
2021-06-17T15:56:40.973,0.05,-0.39,9.8,0.0,-0.125,-0.125,-16.5,9.6875,-46.0
2021-06-17T15:56:40.99,0.07,-0.41,9.85,-0.0625,0.0,0.0,-16.5,9.6875,-46.0
2021-06-17T15:56:41.003,0.07,-0.39,9.85,-0.0625,0.0,0.0625,-16.875,8.875,-45.5625
2021-06-17T15:56:41.016,0.04,-0.4,9.84,0.0,0.0,0.0625,-16.875,8.875,-45.5625
2021-06-17T15:56:41.029,0.05,-0.4,9.86,-0.0625,-0.125,0.0625,-16.875,8.875,-45.5625
2021-06-17T15:56:41.042,0.05,-0.39,9.83,0.0,0.125,0.0,-16.875,8.875,-45.5625
2021-06-17T15:56:41.055,0.04,-0.42,9.87,-0.0625,-0.0625,0.0,-16.875,8.5,-45.25
2021-06-17T15:56:41.067,0.07,-0.4,9.86,0.0,0.0,-0.0625,-16.875,8.5,-45.25
2021-06-17T15:56:41.08,0.06,-0.39,9.83,-0.0625,0.0625,-0.0625,-16.875,8.5,-45.25
2021-06-17T15:56:41.093,0.06,-0.4,9.86,-0.0625,0.0625,-0.0625,-16.875,8.5,-45.25
2021-06-17T15:56:41.107,0.03,-0.39,9.85,-0.0625,0.125,-0.0625,-16.875,8.875,-45.1875
2021-06-17T15:56:41.12,0.06,-0.41,9.85,-0.125,0.125,0.0,-16.875,8.875,-45.1875
2021-06-17T15:56:41.132,0.05,-0.39,9.81,0.0,0.0625,-0.125,-16.875,8.875,-45.1875
2021-06-17T15:56:41.145,0.05,-0.39,9.82,0.0,0.125,-0.0625,-16.875,8.875,-45.1875
2021-06-17T15:56:41.158,0.06,-0.38,9.85,-0.125,-0.0625,-0.0625,-16.1875,8.1875,-45.1875
2021-06-17T15:56:41.171,0.06,-0.4,9.83,-0.125,0.0,-0.0625,-16.1875,8.1875,-45.1875
2021-06-17T15:56:41.184,0.05,-0.4,9.85,-0.0625,0.0,-0.0625,-16.1875,8.1875,-45.1875
2021-06-17T15:56:41.217,0.06,-0.4,9.82,-0.0625,0.0,-0.1875,-16.875,10.0,-44.75
2021-06-17T15:56:41.231,0.03,-0.39,9.83,-0.125,0.125,-0.0625,-16.875,10.0,-44.75
2021-06-17T15:56:41.244,0.03,-0.39,9.82,0.0,0.0,0.0625,-16.875,10.0,-44.75
2021-06-17T15:56:41.257,0.04,-0.4,9.86,0.0,0.0,0.0625,-16.5,9.25,-46.0
2021-06-17T15:56:41.27,0.05,-0.38,9.82,-0.0625,0.0,0.0625,-16.5,9.25,-46.0
2021-06-17T15:56:41.283,0.04,-0.4,9.84,0.0,-0.1875,0.0,-16.5,9.25,-46.0
2021-06-17T15:56:41.295,0.06,-0.4,9.85,0.125,-0.0625,-0.0625,-16.5,9.25,-46.0
2021-06-17T15:56:41.308,0.04,-0.4,9.86,-0.0625,0.125,0.0,-16.5,9.25,-45.5625
2021-06-17T15:56:41.321,0.07,-0.4,9.82,0.0625,0.0,0.0,-16.5,9.25,-45.5625
2021-06-17T15:56:41.334,0.07,-0.41,9.83,-0.0625,0.0625,0.0,-16.5,9.25,-45.5625
2021-06-17T15:56:41.347,0.06,-0.41,9.86,-0.0625,-0.125,0.0625,-16.875,9.25,-46.875
2021-06-17T15:56:41.36,0.05,-0.39,9.82,0.0625,0.0,0.0625,-16.875,9.25,-46.875
2021-06-17T15:56:41.372,0.04,-0.4,9.81,0.0,0.0,0.0,-16.875,9.25,-46.875
2021-06-17T15:56:41.385,0.03,-0.4,9.84,0.0625,-0.0625,0.125,-16.875,9.25,-46.875
2021-06-17T15:56:41.398,0.06,-0.41,9.84,0.0625,0.0,0.0625,-16.1875,8.875,-45.5625
2021-06-17T15:56:41.411,0.06,-0.42,9.82,0.1875,0.0,-0.1875,-16.1875,8.875,-45.5625
2021-06-17T15:56:41.424,0.04,-0.42,9.82,0.0625,0.0,0.0,-16.1875,8.875,-45.5625
2021-06-17T15:56:41.447,0.06,-0.38,9.85,-0.125,0.0,0.125,-17.25,8.875,-46.75
2021-06-17T15:56:41.465,0.04,-0.4,9.82,-0.0625,-0.125,0.0,-17.25,8.875,-46.75
2021-06-17T15:56:41.478,0.05,-0.4,9.84,0.1875,0.0,0.0625,-17.25,8.875,-46.75
2021-06-17T15:56:41.491,0.06,-0.39,9.83,0.125,0.0,0.0,-17.25,8.875,-46.75
2021-06-17T15:56:41.504,0.06,-0.4,9.85,-0.0625,0.0625,-0.0625,-16.5,9.25,-46.375
2021-06-17T15:56:41.516,0.07,-0.39,9.85,0.0625,-0.0625,0.0625,-16.5,9.25,-46.375
2021-06-17T15:56:41.529,0.04,-0.4,9.83,-0.125,-0.1875,0.125,-16.5,9.25,-46.375
2021-06-17T15:56:41.542,0.06,-0.4,9.85,0.0625,-0.1875,-0.0625,-16.5,9.25,-46.375
2021-06-17T15:56:41.555,0.06,-0.38,9.85,0.0625,0.0625,-0.125,-16.5,8.875,-45.5625
2021-06-17T15:56:41.568,0.04,-0.42,9.84,0.125,0.0,-0.0625,-16.5,8.875,-45.5625
2021-06-17T15:56:41.581,0.05,-0.39,9.84,0.125,0.0625,0.125,-16.5,8.875,-45.5625
2021-06-17T15:56:41.594,0.05,-0.4,9.85,-0.0625,0.0625,0.0,-16.5,8.875,-45.5625
2021-06-17T15:56:41.607,0.06,-0.41,9.85,0.125,0.0,0.0625,-17.25,9.25,-46.0
2021-06-17T15:56:41.62,0.07,-0.41,9.84,-0.125,-0.125,0.0,-17.25,9.25,-46.0
2021-06-17T15:56:41.633,0.05,-0.41,9.81,0.0,-0.125,0.125,-17.25,9.25,-46.0
2021-06-17T15:56:41.645,0.05,-0.41,9.83,0.0,0.0,0.0625,-17.25,9.25,-46.0
2021-06-17T15:56:41.658,0.05,-0.4,9.81,0.125,-0.0625,0.0,-17.25,8.1875,-46.0
2021-06-17T15:56:41.679,0.05,-0.41,9.82,0.0625,-0.0625,0.0625,-17.25,8.1875,-46.0
2021-06-17T15:56:41.693,0.07,-0.39,9.84,0.0,0.0,0.0,-17.25,8.1875,-46.0
2021-06-17T15:56:41.706,0.05,-0.39,9.86,0.0625,-0.0625,0.0,-16.1875,8.875,-46.375
2021-06-17T15:56:41.719,0.05,-0.41,9.81,0.0625,0.0,0.0625,-16.1875,8.875,-46.375
2021-06-17T15:56:41.731,0.05,-0.39,9.83,0.0,0.0,0.0,-16.1875,8.875,-46.375
2021-06-17T15:56:41.744,0.04,-0.39,9.84,-0.125,-0.125,0.125,-16.1875,8.875,-14.375
2021-06-17T15:56:41.757,0.05,-0.4,9.86,-0.125,0.0625,0.0625,-16.1875,8.5,-46.0
2021-06-17T15:56:41.77,0.04,-0.39,9.82,0.1875,0.0,0.0625,-16.1875,8.5,-46.0
2021-06-17T15:56:41.783,0.05,-0.4,9.85,0.0625,0.0,0.0,-16.1875,8.5,-46.0
2021-06-17T15:56:41.795,0.06,-0.4,9.85,0.0625,-0.0625,0.0,-16.1875,8.5,-46.0
2021-06-17T15:56:41.808,0.04,-0.41,9.86,0.0625,0.125,0.0625,-16.1875,9.25,-46.375
2021-06-17T15:56:41.821,0.06,-0.4,9.8,0.0625,0.0,0.0,-16.1875,9.25,-46.375
2021-06-17T15:56:41.834,0.04,-0.39,9.82,-0.0625,0.0625,-0.1875,-16.1875,9.25,-46.375
2021-06-17T15:56:41.847,0.05,-0.41,9.84,0.0625,0.125,0.0625,-16.1875,9.25,-46.375
2021-06-17T15:56:41.86,0.05,-0.41,9.87,-0.0625,-0.125,-0.125,-16.5,9.25,-45.5625
2021-06-17T15:56:41.872,0.03,-0.4,9.82,0.0625,-0.0625,0.0625,-16.5,9.25,-45.5625
2021-06-17T15:56:41.885,0.06,-0.4,9.82,0.0,-0.0625,0.125,-16.5,9.25,-45.5625
2021-06-17T15:56:41.909,0.06,-0.39,9.84,0.0,-0.0625,-0.125,-16.5,8.875,-45.1875
2021-06-17T15:56:41.927,0.04,-0.42,9.82,0.25,-0.125,-0.125,-16.5,8.875,-45.1875
2021-06-17T15:56:41.94,0.07,-0.37,9.83,-0.0625,-0.0625,-0.125,-16.5,8.875,-45.1875
2021-06-17T15:56:41.952,0.06,-0.39,9.85,0.0,0.25,-0.0625,-16.5,9.25,-46.0
2021-06-17T15:56:41.965,0.03,-0.41,9.85,0.0,0.0,-0.0625,-16.5,9.25,-46.0
2021-06-17T15:56:41.978,0.04,-0.4,9.82,0.0625,-0.125,0.0625,-16.5,9.25,-46.0
2021-06-17T15:56:41.991,0.04,-0.4,9.82,0.0625,-0.125,0.0,-16.5,9.25,-46.0
2021-06-17T15:56:42.004,0.06,-0.4,9.83,0.125,-0.125,-0.0625,-16.1875,9.25,-44.75
2021-06-17T15:56:42.017,0.04,-0.41,9.83,0.125,-0.125,-0.0625,-16.1875,9.25,-44.75
2021-06-17T15:56:42.029,0.05,-0.39,9.83,0.0,-0.1875,0.0,-16.1875,9.25,-44.75
2021-06-17T15:56:42.043,0.05,-0.41,9.84,0.125,-0.0625,-0.0625,-16.1875,9.25,-44.75
2021-06-17T15:56:42.056,0.06,-0.4,9.85,0.125,0.0625,-0.0625,-16.5,8.5,-45.5625
2021-06-17T15:56:42.069,0.04,-0.4,9.84,0.0625,-0.0625,-0.0625,-16.5,8.5,-45.5625
2021-06-17T15:56:42.082,0.04,-0.41,9.83,0.125,-0.0625,-0.0625,-16.5,8.5,-45.5625
2021-06-17T15:56:42.094,0.06,-0.42,9.83,0.0625,0.125,0.0625,-16.5,8.5,-45.5625
2021-06-17T15:56:42.107,0.06,-0.37,9.85,0.0625,0.0,-0.125,-15.75,9.25,-45.25
2021-06-17T15:56:42.12,0.06,-0.4,9.85,-0.125,-0.125,0.0625,-15.75,9.25,-45.25
2021-06-17T15:56:42.154,0.04,-0.39,9.85,0.0,0.0,-0.0625,-16.875,8.5,-44.0
2021-06-17T15:56:42.168,0.04,-0.41,9.83,-0.0625,-0.1875,-0.0625,-16.875,8.5,-44.0
2021-06-17T15:56:42.18,0.03,-0.4,9.84,0.0625,0.0625,-0.0625,-16.875,8.5,-44.0
2021-06-17T15:56:42.193,0.06,-0.39,9.84,-0.0625,0.125,-0.0625,-16.875,8.5,-44.0
2021-06-17T15:56:42.206,0.05,-0.43,9.86,0.1875,-0.1875,0.0,-16.875,8.875,-46.75
2021-06-17T15:56:42.219,0.06,-0.39,9.85,0.0,0.0,0.0,-16.875,8.875,-46.75
2021-06-17T15:56:42.232,0.06,-0.4,9.81,0.125,-0.3125,0.0,-16.875,8.875,-46.75
2021-06-17T15:56:42.245,0.04,-0.41,9.84,0.125,-0.1875,0.0,-16.875,8.875,-46.75
2021-06-17T15:56:42.257,0.05,-0.41,9.86,0.125,0.0,-0.125,-16.1875,8.875,-44.75
2021-06-17T15:56:42.27,0.07,-0.41,9.81,0.0,-0.0625,0.0,-16.1875,8.875,-44.75
2021-06-17T15:56:42.283,0.07,-0.39,9.85,0.0,0.0625,-0.0625,-16.1875,8.875,-44.75
2021-06-17T15:56:42.296,0.03,-0.38,9.85,-0.125,-0.0625,0.0,-16.1875,8.875,-44.75
2021-06-17T15:56:42.309,0.05,-0.41,9.86,0.0625,-0.25,0.0625,-16.5,8.1875,-44.75
2021-06-17T15:56:42.322,0.05,-0.38,9.8,0.0625,0.0,0.0625,-16.5,8.1875,-44.75
2021-06-17T15:56:42.335,0.05,-0.39,9.84,0.0625,0.125,0.0,-16.5,8.1875,-44.75
2021-06-17T15:56:42.347,0.04,-0.38,9.87,0.0,0.0625,-0.0625,-16.5,8.1875,-44.75
2021-06-17T15:56:42.36,0.04,-0.41,9.82,0.0,0.0625,0.0625,-16.5,9.25,-45.5625
2021-06-17T15:56:42.389,0.07,-0.41,9.83,0.0,0.0625,0.0625,-16.5,9.25,-45.5625
2021-06-17T15:56:42.402,0.06,-0.38,9.84,0.0625,0.0625,-0.0625,-16.5,9.25,-45.5625
2021-06-17T15:56:42.415,0.05,-0.42,9.87,0.0625,-0.125,0.125,-16.1875,9.25,-45.5625
2021-06-17T15:56:42.427,0.05,-0.42,9.81,0.0,0.0625,0.0,-16.1875,9.25,-45.5625
2021-06-17T15:56:42.44,0.05,-0.41,9.86,0.0,0.0,0.0,-16.1875,9.25,-45.5625
2021-06-17T15:56:42.453,0.06,-0.38,9.86,0.0,0.0625,0.0625,-15.75,8.5,-44.375
2021-06-17T15:56:42.466,0.05,-0.41,9.85,-0.0625,0.0,0.125,-15.75,8.5,-44.375
2021-06-17T15:56:42.479,0.05,-0.41,9.83,0.0,0.0625,-0.0625,-15.75,8.5,-44.375
2021-06-17T15:56:42.492,0.05,-0.41,9.82,-0.125,0.0625,0.0625,-15.75,8.5,-44.375
2021-06-17T15:56:42.504,0.08,-0.4,9.86,0.1875,-0.0625,0.0625,-16.5,8.5,-45.1875
2021-06-17T15:56:42.518,0.05,-0.4,9.83,0.0,0.0,-0.0625,-16.5,8.5,-45.1875
2021-06-17T15:56:42.531,0.05,-0.39,9.82,0.0,0.0625,0.0625,-16.5,8.5,-45.1875
2021-06-17T15:56:42.544,0.06,-0.42,9.83,0.1875,0.25,0.0,-16.5,8.5,-45.1875
2021-06-17T15:56:42.557,0.07,-0.42,9.83,0.0625,0.0625,0.0,-16.875,8.875,-46.75
